subject,trial,rt,choice,vDiff,vL,vR
9156374,1,5.968,0,-2.25,30.0,32.25
9156374,2,3.92,1,3.75,30.0,26.25
9156374,3,4.045,1,5.25,30.0,24.75
9156374,4,4.63,1,-0.75,29.25,30.0
9156374,5,5.052,1,0.0,30.0,30.0
9156374,6,2.897,1,-1.5,28.5,30.0
9156374,7,4.931,0,-4.5,30.0,34.5
9156374,8,3.006,0,-4.5,25.5,30.0
9156374,9,3.596,1,7.5,30.0,22.5
9156374,10,3.099,1,3.0,33.0,30.0
9156374,11,3.175,0,-1.5,30.0,31.5
9156374,12,2.695,1,6.0,30.0,24.0
9156374,13,4.874,1,-2.25,27.75,30.0
9156374,14,2.885,1,3.0,30.0,27.0
9156374,15,1.769,0,-8.25,21.75,30.0
9156374,16,3.09,0,-6.75,23.25,30.0
9156374,17,3.112,0,-3.75,30.0,33.75
9156374,18,3.383,0,-6.0,30.0,36.0
9156374,19,2.056,1,5.25,35.25,30.0
9156374,20,3.406,1,0.75,30.75,30.0
9156374,21,5.895,0,-2.25,6.75,9.0
9156374,22,6.105,1,6.75,9.0,2.25
9156374,23,5.971,0,3.75,12.75,9.0
9156374,24,3.603,1,3.75,9.0,5.25
9156374,25,4.962,0,-0.75,8.25,9.0
9156374,26,4.447,1,7.5,9.0,1.5
9156374,27,5.142,1,3.0,12.0,9.0
9156374,28,2.919,0,-4.5,9.0,13.5
9156374,29,3.072,1,6.0,9.0,3.0
9156374,30,3.932,1,5.25,14.25,9.0
9156374,31,5.287,0,-1.5,9.0,10.5
9156374,32,4.386,0,-6.0,9.0,15.0
9156374,33,3.008,0,-4.5,4.5,9.0
9156374,34,2.359,1,0.75,9.75,9.0
9156374,35,2.416,0,-2.25,9.0,11.25
9156374,36,3.007,1,3.0,9.0,6.0
9156374,37,4.838,0,0.0,9.0,9.0
9156374,38,4.171,1,-1.5,7.5,9.0
9156374,39,2.411,0,-8.25,0.75,9.0
9156374,40,1.913,0,-5.25,3.75,9.0
9156482,1,5.84159999996424,1,5.25,30.0,24.75
9156482,2,4.70810000002384,0,-10.5,30.0,40.5
9156482,3,4.24409999996424,0,-15.75,14.25,30.0
9156482,4,5.24339999997616,1,3.5,30.0,26.5
9156482,5,2.67059999996424,1,17.5,30.0,12.5
9156482,6,9.68060000002384,0,-10.5,19.5,30.0
9156482,7,5.37240000003576,0,-12.25,17.75,30.0
9156482,8,6.87610000002384,0,3.5,33.5,30.0
9156482,9,3.54730000001192,0,-14.0,30.0,44.0
9156482,10,1.936,1,8.75,30.0,21.25
9156482,11,2.56930000001192,0,-19.25,10.75,30.0
9156482,12,1.90880000001192,1,-1.75,30.0,31.75
9156482,13,1.7825,1,7.0,30.0,23.0
9156482,14,1.5996999999880799,1,-5.25,30.0,35.25
9156482,15,3.77530000001192,1,0.0,30.0,30.0
9156482,16,2.32610000002384,0,-14.0,16.0,30.0
9156482,17,2.5244000000357603,0,-12.25,30.0,42.25
9156482,18,2.13639999997616,1,8.75,38.75,30.0
9156482,19,1.5011000000238401,0,7.0,37.0,30.0
9156482,20,1.505,1,1.75,30.0,28.25
9156482,21,6.98020000004768,0,-19.25,1.75,21.0
9156482,22,6.02510000002384,0,7.0,28.0,21.0
9156482,23,6.49019999998808,0,-5.25,15.749999999999998,21.0
9156482,24,5.02369999998808,0,5.25,26.25,21.0
9156482,25,4.614,1,15.75,21.0,5.25
9156482,26,3.27860000002384,1,7.0,21.0,14.0
9156482,27,1.66110000002384,1,10.5,21.0,10.5
9156482,28,1.80869999998808,1,8.75,21.0,12.25
9156482,29,3.58680000001192,0,-14.0,21.0,35.0
9156482,30,1.02680000001192,1,12.25,21.0,8.75
9156482,31,1.8935,0,0.0,21.0,21.0
9156482,32,2.6430999999642397,0,3.5,24.5,21.0
9156482,33,3.77140000003576,1,-1.75,21.0,22.75
9156482,34,2.78289999997616,0,8.75,29.749999999999996,21.0
9156482,35,1.55469999998808,1,10.5,31.499999999999996,21.0
9156482,36,2.3995,1,14.0,21.0,7.0
9156482,37,4.449,0,-12.25,21.0,33.25
9156482,38,6.11869999998808,0,-3.5,17.5,21.0
9156482,39,1.54419999998808,1,17.5,21.0,3.5
9156482,40,2.1935,1,1.75,21.0,19.25
9156521,1,8.811099999964242,1,13.3,43.3,30.0
9156521,2,5.93019999998808,0,1.05,31.05,30.0
9156521,3,7.77470000004768,1,-3.5,30.0,33.5
9156521,4,6.002,1,6.3,30.0,23.7
9156521,5,4.5305,1,13.65,30.0,16.35
9156521,6,5.86569999998808,0,-1.4,28.6,30.0
9156521,7,7.41320000004768,1,20.65,50.65,30.0
9156521,8,4.24269999998808,1,11.2,30.0,18.8
9156521,9,4.0635,0,-25.55,30.0,55.55
9156521,10,11.4043999999762,0,5.95,35.95,30.0
9156521,11,3.825,1,18.55,30.0,11.45
9156521,12,6.45010000002384,1,8.4,38.4,30.0
9156521,13,6.98860000002384,1,16.1,30.0,13.9
9156521,14,2.05029999995232,0,-28.0,30.0,58.0
9156521,15,3.08,1,18.2,48.2,30.0
9156521,16,1.65639999997616,1,3.85,30.0,26.15
9156521,17,2.08609999996424,1,-10.85,30.0,40.849999999999994
9156521,18,4.5435,0,-8.75,21.25,30.0
9156521,19,4.60140000003576,0,-15.75,30.0,45.75
9156521,20,3.03760000002384,0,-23.1,30.0,53.1
9156521,21,12.336099999964201,1,8.75,21.0,12.25
9156521,22,5.21039999997616,1,23.1,44.1,21.0
9156521,23,4.79870000004768,0,1.05,22.05,21.0
9156521,24,4.78519999998808,1,-5.95,21.0,26.95
9156521,25,5.10639999997616,0,-1.4,19.6,21.0
9156521,26,6.11579999995232,1,18.55,21.0,2.45
9156521,27,2.56529999995232,1,11.2,21.0,9.8
9156521,28,2.15629999995232,1,-15.75,21.0,36.75
9156521,29,3.25839999997616,1,-10.85,21.0,31.849999999999998
9156521,30,2.2618999999761598,1,16.1,21.0,4.9
9156521,31,3.02069999998808,1,-28.0,21.0,49.0
9156521,32,7.11559999996424,1,-25.55,21.0,46.55
9156521,33,3.26919999998808,0,20.65,41.65,21.0
9156521,34,4.22679999995232,0,8.4,29.4,21.0
9156521,35,1.27169999998808,0,18.2,39.2,21.0
9156521,36,1.7175,1,-3.5,21.0,24.5
9156521,37,1.0742000000476801,0,-3.85,17.15,21.0
9156521,38,0.8003999999761581,1,6.3,21.0,14.7
9156521,39,3.45740000003576,1,-13.3,21.0,34.3
9156521,40,4.50589999997616,1,13.65,21.0,7.35
9156545,1,7.72699999999999,0,-7.8,30.0,37.8
9156545,2,6.54800000000001,0,-2.7,27.3,30.0
9156545,3,8.689,0,-2.55,30.0,32.55
9156545,4,4.927,1,-0.6,29.4,30.0
9156545,5,7.33199999999997,0,-0.45,30.0,30.45
9156545,6,3.96200000000003,0,-7.95,22.05,30.0
9156545,7,5.112,1,4.65,34.65,30.0
9156545,8,4.533,0,-5.7,30.0,35.7
9156545,9,6.24500000000003,1,1.65,30.0,28.35
9156545,10,4.51,1,6.75,36.75,30.0
9156545,11,5.751,1,6.9,30.0,23.1
9156545,12,4.794,1,9.9,39.9,30.0
9156545,13,4.199,1,3.6,33.6,30.0
9156545,14,3.53999999999997,1,1.5,31.5,30.0
9156545,15,3.84199999999997,1,5.85,30.0,24.15
9156545,16,3.00500000000003,1,4.8,30.0,25.2
9156545,17,4.586,0,-3.75,26.25,30.0
9156545,18,3.727,1,8.85,38.849999999999994,30.0
9156545,19,3.375,1,10.95,40.95,30.0
9156545,20,3.949,0,-12.0,30.0,42.0
9156545,22,6.216,1,10.95,19.95,9.0
9156545,23,7.955,0,-2.55,9.0,11.549999999999999
9156545,24,9.532,0,-2.7,6.3,9.0
9156545,25,6.50399999999994,0,-5.85,3.15,9.0
9156545,26,5.19,1,6.9,9.0,2.1
9156545,27,8.186,0,-1.65,7.35,9.0
9156545,28,9.1,1,3.6,12.6,9.0
9156545,29,3.54499999999994,0,-7.95,1.05,9.0
9156545,30,7.4,1,5.7,14.7,9.0
9156545,31,6.393,0,-8.85,9.0,17.849999999999998
9156545,32,2.821,1,12.0,21.0,9.0
9156545,33,3.096,0,-9.9,9.0,18.9
9156545,34,3.073,0,-4.65,9.0,13.65
9156545,35,3.54800000000006,0,-1.5,9.0,10.5
9156545,36,4.098,0,-3.75,5.25,9.0
9156545,37,4.882,1,7.8,16.8,9.0
9156545,38,2.563,0,-4.8,4.2,9.0
9156545,39,3.201,0,-0.45,9.0,9.45
9156545,40,6.053,0,0.6,9.0,8.4
9156644,1,4.974,1,-4.2,25.8,30.0
9156644,2,5.797,1,17.85,30.0,12.15
9156644,3,4.25,0,-18.9,11.1,30.0
9156644,4,5.927,1,-7.35,22.65,30.0
9156644,5,5.399,1,19.95,30.0,10.05
9156644,6,3.606,0,6.3,30.0,23.7
9156644,7,3.388,0,12.6,30.0,17.4
9156644,8,9.09,0,-15.75,14.25,30.0
9156644,9,11.773,1,-2.1,27.9,30.0
9156644,10,5.09,0,10.5,30.0,19.5
9156644,11,13.188,1,-14.7,15.3,30.0
9156644,12,6.64399999999997,1,-16.8,13.2,30.0
9156644,13,5.863,1,0.0,30.0,30.0
9156644,14,4.461,1,-1.05,28.95,30.0
9156644,15,9.731,0,13.65,30.0,16.35
9156644,16,1.316,1,-5.25,24.75,30.0
9156644,17,1.27199999999997,1,-3.15,26.849999999999998,30.0
9156644,18,1.856,1,-11.55,18.45,30.0
9156644,19,1.618,0,9.45,30.0,20.549999999999997
9156644,20,1.348,1,-8.4,21.6,30.0
9156644,21,8.894999999999971,0,1.05,21.0,19.95
9156644,22,8.76100000000003,0,-5.25,15.75,21.0
9156644,23,7.622,0,-12.6,8.4,21.0
9156644,24,2.569,0,-18.9,2.1,21.0
9156644,25,3.03,1,17.85,21.0,3.15
9156644,26,4.82100000000003,0,-9.45,11.549999999999999,21.0
9156644,27,2.436,1,14.7,21.0,6.3
9156644,28,2.6759999999999398,1,8.4,21.0,12.6
9156644,29,4.764,1,0.0,21.0,21.0
9156644,30,5.637,1,10.5,21.0,10.5
9156644,31,10.395,1,4.2,21.0,16.8
9156644,32,3.103,1,15.75,21.0,5.25
9156644,33,5.547,0,-3.15,17.849999999999998,21.0
9156644,34,2.967,0,-13.65,7.35,21.0
9156644,35,5.71600000000006,1,-2.1,18.9,21.0
9156644,36,2.037,1,16.8,21.0,4.2
9156644,37,1.747,1,7.35,21.0,13.65
9156644,38,1.34300000000006,1,19.95,21.0,1.05
9156644,39,3.331,1,-6.3,14.7,21.0
9156644,40,1.955,0,-11.55,9.45,21.0
9156653,1,1.98989999997616,1,-6.75,23.25,30.0
9156653,2,1.6427000000476801,1,-6.3,23.7,30.0
9156653,3,4.44240000009537,1,0.0,30.0,30.0
9156653,4,1.4948999999761599,0,-4.5,25.5,30.0
9156653,5,1.167,0,-7.65,22.35,30.0
9156653,6,0.826700000047684,1,0.9,30.0,29.1
9156653,7,4.78810000002384,1,7.2,30.0,22.8
9156653,8,3.68659999990463,0,-1.35,28.65,30.0
9156653,9,2.0535,0,-3.15,26.85,30.0
9156653,10,2.10769999992847,1,5.85,30.0,24.15
9156653,11,1.63120000004768,0,-4.05,25.95,30.0
9156653,12,2.26789999997616,0,-5.4,24.6,30.0
9156653,13,3.22160000002384,0,-8.55,21.45,30.0
9156653,14,1.72330000007153,0,-1.8,28.2,30.0
9156653,15,2.52039999997616,1,2.25,30.0,27.75
9156653,16,3.84370000004768,1,2.7,30.0,27.3
9156653,17,1.72960000002384,0,-4.95,25.05,30.0
9156653,18,3.5385,1,-0.45,29.549999999999997,30.0
9156653,19,1.5612999999523198,1,3.6,30.0,26.4
9156653,20,2.23219999992847,0,-8.1,21.9,30.0
9156653,21,6.615,0,-7.2,1.7999999999999998,9.0
9156653,22,2.51129999995232,1,6.75,9.0,2.25
9156653,23,4.36879999995232,0,-8.55,0.44999999999999996,9.0
9156653,24,7.0715,0,3.15,9.0,5.85
9156653,25,1.3981999999284702,1,-0.45,8.549999999999999,9.0
9156653,26,2.38719999992847,0,-4.95,4.05,9.0
9156653,27,5.0255,0,-4.5,4.5,9.0
9156653,28,1.66120000004768,0,2.25,9.0,6.75
9156653,29,1.5325,0,1.8,9.0,7.199999999999999
9156653,30,1.15170000004768,1,7.65,9.0,1.3499999999999999
9156653,31,2.9825,0,2.7,9.0,6.3
9156653,32,5.83960000002384,1,8.1,9.0,0.8999999999999999
9156653,33,1.9205,1,5.4,9.0,3.5999999999999996
9156653,34,2.8252000000476802,0,3.6,9.0,5.3999999999999995
9156653,35,3.46270000004768,1,-0.9,8.1,9.0
9156653,36,5.21939999997616,1,5.85,9.0,3.15
9156653,37,1.6052999999523199,1,-1.35,7.6499999999999995,9.0
9156653,38,4.128,1,0.0,9.0,9.0
9156653,39,1.0657000000476802,1,4.05,9.0,4.95
9156653,40,1.59439999997616,0,-6.3,2.6999999999999997,9.0
9156665,1,8.467,1,6.75,36.75,30.0
9156665,2,8.371,1,-3.75,26.25,30.0
9156665,3,11.331,1,10.95,40.95,30.0
9156665,4,9.285,1,8.85,38.849999999999994,30.0
9156665,5,0.986000000000015,0,-2.55,30.0,32.55
9156665,6,0.272,1,1.65,30.0,28.35
9156665,7,0.171,0,4.65,34.65,30.0
9156665,8,4.46,0,-2.7,27.3,30.0
9156665,9,2.254,0,-7.95,22.05,30.0
9156665,10,1.033,0,-0.6,29.4,30.0
9156665,11,1.97000000000001,1,-0.45,30.0,30.45
9156665,12,3.845,1,3.6,33.6,30.0
9156665,13,3.79,0,-7.8,30.0,37.8
9156665,14,1.568,1,1.5,31.5,30.0
9156665,15,1.294,1,5.85,30.0,24.15
9156665,16,1.062,1,6.9,30.0,23.1
9156665,17,2.34,0,-5.7,30.0,35.7
9156665,18,1.02000000000003,0,4.8,30.0,25.2
9156665,19,0.905,1,-12.0,30.0,42.0
9156665,20,3.393,1,9.9,39.9,30.0
9156665,21,5.312,0,-4.8,4.2,9.0
9156665,22,1.422,0,0.6,9.0,8.4
9156665,23,2.62,0,10.95,19.95,9.0
9156665,24,1.74,0,-0.45,9.0,9.45
9156665,25,1.31199999999997,1,-2.55,9.0,11.549999999999999
9156665,26,0.0570000000000291,0,-5.85,3.15,9.0
9156665,27,2.03,1,6.9,9.0,2.1
9156665,28,0.584,1,-8.85,9.0,17.849999999999998
9156665,29,1.87799999999997,0,3.6,12.6,9.0
9156665,30,1.533,0,5.7,14.7,9.0
9156665,31,1.439,0,-1.5,9.0,10.5
9156665,32,2.77900000000003,0,-3.75,5.25,9.0
9156665,33,1.19300000000003,1,-1.65,7.35,9.0
9156665,34,2.323,1,12.0,21.0,9.0
9156665,35,2.282,0,-2.7,6.3,9.0
9156665,36,2.25,0,-7.95,1.05,9.0
9156665,37,1.46200000000003,0,-6.75,9.0,15.75
9156665,38,0.92,1,7.8,16.8,9.0
9156665,39,0.44699999999997103,0,-9.9,9.0,18.9
9156665,40,0.815,0,-4.65,9.0,13.65
9156669,1,13.659,0,-10.5,30.0,40.5
9156669,2,8.232,0,-14.0,30.0,44.0
9156669,3,7.573,0,-15.75,14.25,30.0
9156669,5,5.75699999999997,0,-19.25,10.75,30.0
9156669,6,10.48,1,8.75,38.75,30.0
9156669,7,8.81100000000006,0,-5.25,30.0,35.25
9156669,8,3.151,0,-12.25,30.0,42.25
9156669,9,4.079,0,-12.25,17.75,30.0
9156669,10,5.123,1,8.75,30.0,21.25
9156669,11,8.734,1,7.0,30.0,23.0
9156669,12,4.99600000000006,0,-10.5,19.5,30.0
9156669,13,2.73000000000006,1,7.0,37.0,30.0
9156669,14,3.108,0,-1.75,30.0,31.75
9156669,15,2.704,0,0.0,30.0,30.0
9156669,16,4.976,0,-14.0,16.0,30.0
9156669,17,1.804,1,3.5,33.5,30.0
9156669,18,4.177,0,3.5,30.0,26.5
9156669,19,3.24100000000006,1,17.5,30.0,12.5
9156669,20,6.314,1,5.25,30.0,24.75
9156669,23,5.266,1,-1.75,21.0,22.75
9156669,24,4.85,0,-14.0,21.0,35.0
9156669,25,4.498,1,8.75,21.0,12.25
9156669,26,2.217,1,15.75,21.0,5.25
9156669,27,1.698,1,17.5,21.0,3.5
9156669,28,5.022,0,3.5,24.5,21.0
9156669,29,5.004,0,-12.25,21.0,33.25
9156669,30,3.72199999999994,0,-3.5,17.5,21.0
9156669,31,3.31400000000006,0,-19.25,1.75,21.0
9156669,32,10.748,0,5.25,26.25,21.0
9156669,33,7.772,1,7.0,28.0,21.0
9156669,34,2.93500000000006,1,10.5,21.0,10.5
9156669,35,8.484,0,-5.25,15.749999999999998,21.0
9156669,36,1.783,1,14.0,21.0,7.0
9156669,37,1.986,1,1.75,21.0,19.25
9156669,38,1.274,1,12.25,21.0,8.75
9156669,39,2.70099999999994,0,0.0,21.0,21.0
9156669,40,1.91600000000006,1,10.5,31.499999999999996,21.0
9156681,1,2.55539999997616,0,3.0,30.0,27.0
9156681,2,3.3532000000476803,1,-4.5,25.5,30.0
9156681,3,5.00369999992847,1,-0.75,29.25,30.0
9156681,4,6.539,0,-3.75,30.0,33.75
9156681,5,4.88479999995232,0,-8.25,21.75,30.0
9156681,6,7.28640000009537,0,-1.5,30.0,31.5
9156681,7,3.69260000002384,0,-4.5,30.0,34.5
9156681,8,5.87810000002384,1,7.5,30.0,22.5
9156681,9,6.65379999995232,1,-1.5,28.5,30.0
9156681,10,3.202,1,3.75,30.0,26.25
9156681,11,4.15660000002384,1,3.0,33.0,30.0
9156681,12,3.64090000009537,1,0.75,30.75,30.0
9156681,13,2.464,1,5.25,35.25,30.0
9156681,14,3.4995,0,-6.75,23.25,30.0
9156681,15,3.44929999995232,1,5.25,30.0,24.75
9156681,16,4.28980000007153,1,0.0,30.0,30.0
9156681,17,6.02339999997616,0,-6.0,30.0,36.0
9156681,18,6.5655,1,-2.25,27.75,30.0
9156681,19,2.51879999995232,1,6.0,30.0,24.0
9156681,20,3.23479999995232,0,-2.25,30.0,32.25
9156681,21,8.35560000002384,1,-6.0,9.0,15.0
9156681,22,8.70989999997616,1,3.75,9.0,5.25
9156681,23,3.99860000002384,0,-2.25,6.75,9.0
9156681,24,5.117,1,6.0,9.0,3.0
9156681,25,5.81760000002384,1,5.25,14.25,9.0
9156681,26,3.851,0,-5.25,3.75,9.0
9156681,27,4.24860000002384,0,-2.25,9.0,11.25
9156681,28,5.18380000007153,0,-8.25,0.75,9.0
9156681,29,3.24889999997616,1,3.0,9.0,6.0
9156681,30,2.99120000004768,1,7.5,9.0,1.5
9156681,31,4.3675,1,6.75,9.0,2.25
9156681,32,6.76130000007153,1,-0.75,8.25,9.0
9156681,33,3.16320000004768,1,0.0,9.0,9.0
9156681,34,3.25760000002384,1,0.75,9.75,9.0
9156681,35,1.6806000000238401,0,-4.5,9.0,13.5
9156681,36,2.5985,1,3.0,12.0,9.0
9156681,37,4.9505,0,-4.5,4.5,9.0
9156681,38,2.95660000002384,1,-1.5,7.5,9.0
9156681,39,1.23339999997616,1,3.75,12.75,9.0
9156681,40,2.6392000000476803,0,-1.5,9.0,10.5
9156697,1,4.891,1,3.85,30.0,26.15
9156697,2,5.10399999999997,0,-23.1,30.0,53.1
9156697,3,6.625,0,-28.0,30.0,58.0
9156697,4,4.063,0,-25.55,30.0,55.55
9156697,5,4.45699999999994,1,16.1,30.0,13.9
9156697,6,5.545,1,13.65,30.0,16.35
9156697,7,3.039,0,-3.5,30.0,33.5
9156697,8,6.064,1,20.65,50.65,30.0
9156697,9,2.952,0,-15.75,30.0,45.75
9156697,10,2.897,0,-10.85,30.0,40.849999999999994
9156697,11,2.404,1,18.55,30.0,11.45
9156697,12,5.674,0,6.3,30.0,23.7
9156697,15,11.136,1,5.95,35.95,30.0
9156697,16,6.447,1,-1.4,28.6,30.0
9156697,17,2.976,1,18.2,48.2,30.0
9156697,18,4.10300000000006,0,-8.75,21.25,30.0
9156697,19,4.225,1,11.2,30.0,18.8
9156697,20,4.846,1,8.4,38.4,30.0
9156697,21,8.801,1,20.65,41.65,21.0
9156697,22,12.994,1,8.4,29.4,21.0
9156697,23,7.054,0,-1.4,19.6,21.0
9156697,24,5.57600000000006,1,16.1,21.0,4.9
9156697,25,6.085,1,13.65,21.0,7.35
9156697,26,8.32,1,18.55,21.0,2.45
9156697,27,10.546,0,-3.85,17.15,21.0
9156697,28,5.40200000000006,1,6.3,21.0,14.7
9156697,29,6.68,0,-28.0,21.0,49.0
9156697,30,7.278,1,11.2,21.0,9.8
9156697,31,12.734,0,-10.85,21.0,31.849999999999998
9156697,33,4.45799999999988,1,23.1,44.1,21.0
9156697,34,5.85,0,-25.55,21.0,46.55
9156697,35,7.362,0,-5.95,21.0,26.95
9156697,36,11.185,0,1.05,22.05,21.0
9156697,37,5.62,0,-13.3,21.0,34.3
9156697,38,6.037,1,8.75,21.0,12.25
9156697,39,7.353,0,-15.75,21.0,36.75
9156697,40,3.7470000000001202,1,18.2,39.2,21.0
9156707,1,5.01640000009537,1,-3.15,26.849999999999998,30.0
9156707,2,1.91370000004768,1,6.3,30.0,23.7
9156707,3,1.37569999992847,0,-2.1,27.9,30.0
9156707,4,4.82929999995232,1,-11.55,18.45,30.0
9156707,5,3.824,0,12.6,30.0,17.4
9156707,6,7.2656999999284695,1,-1.05,28.95,30.0
9156707,7,2.81190000009537,0,-18.9,11.1,30.0
9156707,8,5.95779999995232,1,-7.35,22.65,30.0
9156707,9,1.76589999997616,1,17.85,30.0,12.15
9156707,10,7.62279999995232,0,-8.4,21.6,30.0
9156707,11,6.44489999997616,1,19.95,30.0,10.05
9156707,13,6.30760000002384,1,10.5,30.0,19.5
9156707,14,3.82289999997616,1,13.65,30.0,16.35
9156707,15,3.56489999997616,1,-5.25,24.75,30.0
9156707,16,8.56520000004768,1,-15.75,14.25,30.0
9156707,17,1.64489999997616,1,-4.2,25.8,30.0
9156707,18,3.51330000007153,0,-16.8,13.2,30.0
9156707,19,0.5646000000238419,1,-14.7,15.3,30.0
9156707,20,4.64670000004768,0,0.0,30.0,30.0
9156707,21,4.439,0,-13.65,7.35,21.0
9156707,22,1.19860000002384,1,17.85,21.0,3.15
9156707,23,2.40139999997616,0,-3.15,17.849999999999998,21.0
9156707,24,1.61839999997616,0,-18.9,2.1,21.0
9156707,25,3.5465,1,4.2,21.0,16.8
9156707,26,2.07789999997616,0,-6.3,14.7,21.0
9156707,27,2.08009999990463,1,16.8,21.0,4.2
9156707,28,1.4465,0,-5.25,15.75,21.0
9156707,29,1.4911000000238401,1,10.5,21.0,10.5
9156707,30,1.06720000004768,1,7.35,21.0,13.65
9156707,31,4.0446000000238405,0,0.0,21.0,21.0
9156707,32,4.27210000002384,1,8.4,21.0,12.6
9156707,33,4.76989999997616,0,-2.1,18.9,21.0
9156707,34,2.13179999995232,0,15.75,21.0,5.25
9156707,35,1.2775,1,14.7,21.0,6.3
9156707,36,1.8015,0,-11.55,9.45,21.0
9156707,37,1.47460000002384,0,-12.6,8.4,21.0
9156707,38,0.9077999999523161,1,19.95,21.0,1.05
9156707,39,1.81610000002384,0,-9.45,11.549999999999999,21.0
9156707,40,1.75360000002384,0,1.05,21.0,19.95
9156713,1,4.385,0,-3.75,26.25,30.0
9156713,2,12.8763000000007,1,-12.0,30.0,42.0
9156713,3,5.54340000000037,0,-7.8,30.0,37.8
9156713,4,4.64629999999888,1,8.85,38.849999999999994,30.0
9156713,5,3.95219999999925,0,-5.7,30.0,35.7
9156713,6,5.13520000000112,1,-2.7,27.3,30.0
9156713,7,4.921300000000749,0,5.85,30.0,24.15
9156713,8,2.9519000000003697,0,1.65,30.0,28.35
9156713,9,1.86340000000037,1,6.75,36.75,30.0
9156713,10,4.17659999999963,1,3.6,33.6,30.0
9156713,11,5.517,0,-2.55,30.0,32.55
9156713,12,1.87940000000037,1,6.9,30.0,23.1
9156713,13,2.53729999999888,0,-7.95,22.05,30.0
9156713,14,3.08270000000112,1,4.65,34.65,30.0
9156713,15,1.64040000000037,0,-0.6,29.4,30.0
9156713,16,1.6835,0,1.5,31.5,30.0
9156713,17,1.71890000000037,1,10.95,40.95,30.0
9156713,18,1.2625,1,-0.45,30.0,30.45
9156713,19,1.23180000000075,1,9.9,39.9,30.0
9156713,20,1.4135,1,4.8,30.0,25.2
9156713,21,10.661300000000699,0,5.7,14.7,9.0
9156713,22,9.0025,0,-4.8,4.2,9.0
9156713,23,4.21790000000037,0,-5.85,3.15,9.0
9156713,24,3.16079999999888,0,-7.95,1.05,9.0
9156713,25,5.83929999999888,0,-4.65,9.0,13.65
9156713,26,3.098,1,3.6,12.6,9.0
9156713,27,4.47309999999963,1,-0.45,9.0,9.45
9156713,28,3.5320999999996303,0,-6.75,9.0,15.75
9156713,29,1.9195,1,12.0,21.0,9.0
9156713,30,1.8887999999988798,1,10.95,19.95,9.0
9156713,31,2.84160000000149,1,0.6,9.0,8.4
9156713,32,1.78420000000112,1,6.9,9.0,2.1
9156713,33,1.11690000000037,1,7.8,16.8,9.0
9156713,34,3.0225,0,-1.65,7.35,9.0
9156713,35,0.834400000000373,0,-8.85,9.0,17.849999999999998
9156713,36,0.984,1,-2.55,9.0,11.549999999999999
9156713,37,2.20620000000112,0,-3.75,5.25,9.0
9156713,38,1.84619999999925,0,-2.7,6.3,9.0
9156713,39,1.596,0,-9.9,9.0,18.9
9156713,40,1.93730000000075,1,-1.5,9.0,10.5
9156718,2,6.201,0,-7.65,22.35,30.0
9156718,3,4.491,0,-6.3,23.7,30.0
9156718,4,3.91399999999999,1,-3.15,26.85,30.0
9156718,7,7.423,0,0.9,30.0,29.1
9156718,8,3.918,0,0.0,30.0,30.0
9156718,9,2.5969999999999698,0,2.7,30.0,27.3
9156718,10,2.137,1,5.85,30.0,24.15
9156718,11,5.921,1,-1.8,28.2,30.0
9156718,12,2.27,1,-1.35,28.65,30.0
9156718,14,2.594,0,-8.1,21.9,30.0
9156718,15,1.433,0,-5.4,24.6,30.0
9156718,16,4.091,0,2.25,30.0,27.75
9156718,17,2.174,0,-4.95,25.05,30.0
9156718,18,3.13,0,-4.05,25.95,30.0
9156718,19,1.154,1,7.2,30.0,22.8
9156718,20,2.964,0,-6.75,23.25,30.0
9156718,21,6.46600000000003,1,2.25,9.0,6.75
9156718,22,2.559,0,-0.9,8.1,9.0
9156718,23,4.11799999999994,1,3.6,9.0,5.3999999999999995
9156718,24,5.682,0,-0.45,8.549999999999999,9.0
9156718,25,4.274,1,5.85,9.0,3.15
9156718,26,3.51300000000006,0,-8.55,0.44999999999999996,9.0
9156718,27,2.343,0,-6.3,2.6999999999999997,9.0
9156718,28,6.50300000000006,0,4.05,9.0,4.95
9156718,29,9.23700000000006,0,-7.2,1.7999999999999998,9.0
9156718,30,5.269,0,-4.5,4.5,9.0
9156718,31,1.551,1,8.1,9.0,0.8999999999999999
9156718,32,8.226,0,2.7,9.0,6.3
9156718,33,1.441,0,1.8,9.0,7.199999999999999
9156718,34,1.139,1,5.4,9.0,3.5999999999999996
9156718,35,3.83299999999994,1,6.75,9.0,2.25
9156718,36,1.28,0,-4.95,4.05,9.0
9156718,37,2.232,1,0.0,9.0,9.0
9156718,38,4.346,1,7.65,9.0,1.3499999999999999
9156718,39,5.173,0,3.15,9.0,5.85
9156718,40,1.259,1,-1.35,7.6499999999999995,9.0
9156739,1,3.03439999997616,1,13.3,43.3,30.0
9156739,2,4.09369999992847,1,20.65,50.65,30.0
9156739,3,4.453,0,-3.5,30.0,33.5
9156739,4,2.9945,1,-10.85,30.0,40.849999999999994
9156739,5,3.6011000000238402,0,1.05,31.05,30.0
9156739,6,3.8243999999761598,0,-1.4,28.6,30.0
9156739,7,1.9175,1,11.2,30.0,18.8
9156739,8,4.63210000002384,1,13.65,30.0,16.35
9156739,9,5.25729999995232,1,18.55,30.0,11.45
9156739,10,4.00679999995232,1,8.4,38.4,30.0
9156739,11,3.6675,0,-25.55,30.0,55.55
9156739,12,3.7058000000715303,1,16.1,30.0,13.9
9156739,13,3.53179999995232,0,-15.75,30.0,45.75
9156739,14,1.7905,1,6.3,30.0,23.7
9156739,15,4.7875,0,-8.75,21.25,30.0
9156739,16,7.6075,1,3.85,30.0,26.15
9156739,17,5.96109999990463,1,5.95,35.95,30.0
9156739,18,3.00639999997616,0,-23.1,30.0,53.1
9156739,19,1.5111999999284702,1,18.2,48.2,30.0
9156739,20,2.41089999997616,0,-28.0,30.0,58.0
9156739,21,2.50980000007153,1,8.75,21.0,12.25
9156739,22,2.70060000002384,1,18.55,21.0,2.45
9156739,23,2.6441999999284698,1,23.1,44.1,21.0
9156739,24,3.01439999997616,1,16.1,21.0,4.9
9156739,25,4.88529999995232,0,-3.5,21.0,24.5
9156739,26,2.49260000002384,1,20.65,41.65,21.0
9156739,27,3.15660000002384,0,1.05,22.05,21.0
9156739,28,2.30889999997616,0,-13.3,21.0,34.3
9156739,29,1.99839999997616,0,-15.75,21.0,36.75
9156739,30,5.56780000007153,0,-1.4,19.6,21.0
9156739,31,3.7987000000476803,1,11.2,21.0,9.8
9156739,32,2.2595,0,-5.95,21.0,26.95
9156739,33,2.89660000002384,0,-10.85,21.0,31.849999999999998
9156739,34,1.4622999999523199,1,18.2,39.2,21.0
9156739,35,3.261,1,8.4,29.4,21.0
9156739,36,3.19460000002384,1,6.3,21.0,14.7
9156739,37,4.436,0,-3.85,17.15,21.0
9156739,38,2.67460000002384,0,-28.0,21.0,49.0
9156739,39,2.85889999997616,1,13.65,21.0,7.35
9156739,40,1.89160000002384,0,-25.55,21.0,46.55
9156742,5,3.96570000004768,0,-1.5,28.5,30.0
9156742,6,12.4912000000477,1,5.25,35.25,30.0
9156742,7,5.43379999995232,0,-0.75,29.25,30.0
9156742,8,7.1957000000476805,0,-2.25,30.0,32.25
9156742,9,2.9375,0,-3.75,30.0,33.75
9156742,10,5.81040000009537,0,-1.5,30.0,31.5
9156742,11,2.263,0,-6.75,23.25,30.0
9156742,12,3.01259999990463,1,3.75,30.0,26.25
9156742,13,2.84529999995232,0,-8.25,21.75,30.0
9156742,14,5.80060000014305,1,5.25,30.0,24.75
9156742,15,4.17479999995232,0,0.0,30.0,30.0
9156742,16,1.93820000004768,0,-4.5,25.5,30.0
9156742,17,3.2030999999046297,1,7.5,30.0,22.5
9156742,18,2.3535,0,0.75,30.75,30.0
9156742,19,1.75810000014305,1,6.0,30.0,24.0
9156742,20,1.94339999985695,0,-4.5,30.0,34.5
9156742,21,10.5457999999523,1,5.25,14.25,9.0
9156742,22,12.3329000000954,0,0.0,9.0,9.0
9156742,24,5.2275,0,-4.5,9.0,13.5
9156742,25,6.45079999995232,1,3.75,9.0,5.25
9156742,26,6.17420000004768,1,6.0,9.0,3.0
9156742,27,5.3435,1,7.5,9.0,1.5
9156742,28,5.5585,0,-5.25,3.75,9.0
9156742,29,11.2044000000954,0,-4.5,4.5,9.0
9156742,30,10.6867000000477,0,-0.75,8.25,9.0
9156742,31,7.86879999995232,1,3.0,12.0,9.0
9156742,32,3.26280000019073,1,6.75,9.0,2.25
9156742,33,3.973,1,3.75,12.75,9.0
9156742,34,4.45059999990463,0,-2.25,6.75,9.0
9156742,35,5.53390000009537,0,-2.25,9.0,11.25
9156742,36,2.08339999985695,1,3.0,9.0,6.0
9156742,37,2.87579999995232,0,-6.0,9.0,15.0
9156742,38,4.55629999995232,0,-1.5,7.5,9.0
9156742,39,3.4034000000953704,1,0.75,9.75,9.0
9156742,40,2.336,0,-8.25,0.75,9.0
9156769,1,4.4724000000022395,1,-14.0,30.0,44.0
9156769,2,5.33739999999851,1,1.75,30.0,28.25
9156769,3,3.08010000000149,0,-10.5,30.0,40.5
9156769,4,4.5524000000022395,1,8.75,38.75,30.0
9156769,5,4.36839999999851,1,17.5,30.0,12.5
9156769,6,3.14639999999851,0,-14.0,16.0,30.0
9156769,7,4.425199999999251,1,7.0,30.0,23.0
9156769,8,5.4115,0,-15.75,14.25,30.0
9156769,9,5.64780000000075,0,5.25,30.0,24.75
9156769,10,2.5290999999977597,0,-10.5,19.5,30.0
9156769,11,1.55729999999702,0,0.0,30.0,30.0
9156769,12,6.33539999999851,1,8.75,30.0,21.25
9156769,13,1.516,1,7.0,37.0,30.0
9156769,14,2.5345999999977598,0,-12.25,30.0,42.25
9156769,15,4.15459999999776,0,-19.25,10.75,30.0
9156769,16,1.40510000000149,0,-1.75,30.0,31.75
9156769,17,1.2916000000014898,1,3.5,33.5,30.0
9156769,18,1.8535,0,-12.25,17.75,30.0
9156769,19,1.326,0,3.5,30.0,26.5
9156769,20,1.0995999999977601,0,-5.25,30.0,35.25
9156769,21,7.439699999999251,0,0.0,21.0,21.0
9156769,22,5.35330000000075,1,8.75,29.749999999999996,21.0
9156769,23,4.05790000000224,0,7.0,28.0,21.0
9156769,24,6.49880000000075,1,12.25,21.0,8.75
9156769,25,5.856800000000749,1,-1.75,21.0,22.75
9156769,26,7.82420000000298,0,3.5,24.5,21.0
9156769,27,3.0279000000022402,1,10.5,21.0,10.5
9156769,28,3.54389999999851,0,-14.0,21.0,35.0
9156769,29,3.63619999999925,1,10.5,31.499999999999996,21.0
9156769,30,5.58539999999851,1,7.0,21.0,14.0
9156769,31,1.61419999999925,0,-12.25,21.0,33.25
9156769,32,4.68190000000224,0,-5.25,15.749999999999998,21.0
9156769,33,3.1195,1,14.0,21.0,7.0
9156769,34,3.16569999999925,1,8.75,21.0,12.25
9156769,35,5.1795,0,-3.5,17.5,21.0
9156769,36,2.576,0,1.75,21.0,19.25
9156769,37,2.02570000000298,1,15.75,21.0,5.25
9156769,38,1.61489999999851,1,17.5,21.0,3.5
9156769,39,1.74979999999702,0,-19.25,1.75,21.0
9156769,40,1.4088999999985101,1,5.25,26.25,21.0
9157153,1,5.711,0,-15.75,14.25,30.0
9157153,2,8.119,1,7.0,37.0,30.0
9157153,3,6.9619999999999695,1,7.0,30.0,23.0
9157153,4,7.882,0,-5.25,30.0,35.25
9157153,5,6.22,0,-14.0,16.0,30.0
9157153,6,9.170000000000028,1,1.75,30.0,28.25
9157153,7,5.821,1,5.25,30.0,24.75
9157153,8,9.661,0,-12.25,17.75,30.0
9157153,9,5.02,1,8.75,38.75,30.0
9157153,10,3.92100000000003,0,-10.5,19.5,30.0
9157153,11,2.82300000000003,0,-10.5,30.0,40.5
9157153,12,3.409,1,3.5,30.0,26.5
9157153,13,1.537,0,-12.25,30.0,42.25
9157153,14,2.23700000000003,1,8.75,30.0,21.25
9157153,15,2.07699999999997,0,-19.25,10.75,30.0
9157153,16,4.634,0,0.0,30.0,30.0
9157153,17,1.65899999999997,1,3.5,33.5,30.0
9157153,18,2.325,1,17.5,30.0,12.5
9157153,19,2.153,0,-1.75,30.0,31.75
9157153,20,2.01800000000003,0,-14.0,30.0,44.0
9157153,21,6.279,0,-3.5,17.5,21.0
9157153,22,4.128,0,-14.0,21.0,35.0
9157153,23,4.68600000000003,1,12.25,21.0,8.75
9157153,24,4.571,0,-1.75,21.0,22.75
9157153,25,1.6849999999999399,1,7.0,21.0,14.0
9157153,26,8.455,1,10.5,31.499999999999996,21.0
9157153,27,5.242,1,14.0,21.0,7.0
9157153,28,5.165,1,8.75,21.0,12.25
9157153,29,4.374,0,-5.25,15.749999999999998,21.0
9157153,31,2.918,0,-12.25,21.0,33.25
9157153,32,5.058,1,7.0,28.0,21.0
9157153,33,2.55399999999994,1,10.5,21.0,10.5
9157153,34,5.58,1,0.0,21.0,21.0
9157153,35,2.574,1,17.5,21.0,3.5
9157153,36,2.682,0,-19.25,1.75,21.0
9157153,37,3.352,1,15.75,21.0,5.25
9157153,38,3.173,1,8.75,29.749999999999996,21.0
9157153,39,4.14,1,3.5,24.5,21.0
9157153,40,6.01100000000006,1,5.25,26.25,21.0
9157156,1,9.58220000004768,1,20.65,50.65,30.0
9157156,2,5.19789999997616,0,-28.0,30.0,58.0
9157156,3,8.09879999995232,1,18.55,30.0,11.45
9157156,7,8.38580000007153,1,8.4,38.4,30.0
9157156,8,7.46430000007153,1,5.95,35.95,30.0
9157156,9,5.49579999995232,0,-15.75,30.0,45.75
9157156,10,6.774,1,13.65,30.0,16.35
9157156,11,7.77710000002384,1,11.2,30.0,18.8
9157156,12,6.88440000009537,0,-8.75,21.25,30.0
9157156,13,8.43729999995232,1,-3.5,30.0,33.5
9157156,14,10.9112999999523,1,3.85,30.0,26.15
9157156,15,4.003,1,13.3,43.3,30.0
9157156,16,4.7176999999284694,0,-23.1,30.0,53.1
9157156,17,4.76460000002384,0,-25.55,30.0,55.55
9157156,18,4.976,1,18.2,48.2,30.0
9157156,19,7.79860000002384,0,1.05,31.05,30.0
9157156,20,8.0525,1,6.3,30.0,23.7
9157156,22,8.933700000047681,1,23.1,44.1,21.0
9157156,23,6.92139999997616,1,6.3,21.0,14.7
9157156,24,8.564199999928471,1,13.65,21.0,7.35
9157156,28,8.07260000002384,0,-28.0,21.0,49.0
9157156,30,6.84080000007153,1,18.2,39.2,21.0
9157156,31,7.05940000009537,1,8.4,29.4,21.0
9157156,32,7.72839999997616,0,1.05,22.05,21.0
9157156,34,12.0281000000238,0,-10.85,21.0,31.849999999999998
9157156,35,6.5395,1,11.2,21.0,9.8
9157156,36,9.6845,0,-13.3,21.0,34.3
9157156,37,12.4003000000715,1,20.65,41.65,21.0
9157156,39,7.17160000002384,1,18.55,21.0,2.45
9157156,40,8.11010000002384,1,16.1,21.0,4.9
9157161,1,8.452,0,0.0,30.0,30.0
9157161,2,4.769,0,9.45,30.0,20.549999999999997
9157161,3,6.80999999999997,1,19.95,30.0,10.05
9157161,4,4.345,0,12.6,30.0,17.4
9157161,5,7.265,0,6.3,30.0,23.7
9157161,6,9.157,1,-8.4,21.6,30.0
9157161,7,3.778,1,13.65,30.0,16.35
9157161,8,4.541,0,-15.75,14.25,30.0
9157161,9,5.43,1,-5.25,24.75,30.0
9157161,10,7.491,0,-14.7,15.3,30.0
9157161,11,4.244,1,-4.2,25.8,30.0
9157161,12,3.997,1,17.85,30.0,12.15
9157161,13,2.72899999999997,0,-16.8,13.2,30.0
9157161,14,2.656,1,-1.05,28.95,30.0
9157161,15,3.098,1,-7.35,22.65,30.0
9157161,16,4.88,0,10.5,30.0,19.5
9157161,17,5.13,0,-11.55,18.45,30.0
9157161,18,5.104,1,-2.1,27.9,30.0
9157161,19,2.118,1,-3.15,26.849999999999998,30.0
9157161,20,1.091,0,-18.9,11.1,30.0
9157161,22,10.321,1,7.35,21.0,13.65
9157161,23,5.791,1,-6.3,14.7,21.0
9157161,24,10.11,0,1.05,21.0,19.95
9157161,25,9.327,1,17.85,21.0,3.15
9157161,26,5.915,0,-9.45,11.549999999999999,21.0
9157161,27,8.4,0,-11.55,9.45,21.0
9157161,28,2.911,1,-2.1,18.9,21.0
9157161,29,4.089,1,15.75,21.0,5.25
9157161,30,3.881,0,-13.65,7.35,21.0
9157161,31,10.137,1,8.4,21.0,12.6
9157161,32,4.07400000000006,1,16.8,21.0,4.2
9157161,33,2.764,0,4.2,21.0,16.8
9157161,34,3.001,0,-12.6,8.4,21.0
9157161,35,1.989,1,-5.25,15.75,21.0
9157161,36,1.766,1,19.95,21.0,1.05
9157161,37,2.269,1,-3.15,17.849999999999998,21.0
9157161,38,2.476,1,14.7,21.0,6.3
9157161,39,1.824,1,0.0,21.0,21.0
9157161,40,6.22,1,10.5,21.0,10.5
9157175,1,6.138,1,2.25,30.0,27.75
9157175,2,5.56099999999999,1,3.6,30.0,26.4
9157175,3,6.158,0,-8.55,21.45,30.0
9157175,4,6.205,0,-4.95,25.05,30.0
9157175,5,4.60399999999997,1,-1.35,28.65,30.0
9157175,6,7.209,0,-4.05,25.95,30.0
9157175,7,5.167,1,7.2,30.0,22.8
9157175,8,7.589,0,-3.15,26.85,30.0
9157175,9,6.449,1,0.9,30.0,29.1
9157175,10,4.079,0,-5.4,24.6,30.0
9157175,11,5.37200000000003,0,-8.1,21.9,30.0
9157175,12,2.761,1,-0.45,29.549999999999997,30.0
9157175,13,4.068,0,-6.3,23.7,30.0
9157175,14,3.436,1,5.85,30.0,24.15
9157175,15,2.83,1,-1.8,28.2,30.0
9157175,16,3.881,0,2.7,30.0,27.3
9157175,17,2.45599999999997,0,0.0,30.0,30.0
9157175,18,2.25,0,-6.75,23.25,30.0
9157175,19,3.70699999999997,0,-7.65,22.35,30.0
9157175,20,3.06399999999997,0,-4.5,25.5,30.0
9157175,21,8.031,0,-6.3,2.6999999999999997,9.0
9157175,22,6.981,0,-4.95,4.05,9.0
9157175,23,3.74900000000003,0,-8.55,0.44999999999999996,9.0
9157175,24,8.647,1,1.8,9.0,7.199999999999999
9157175,25,3.421,1,8.1,9.0,0.8999999999999999
9157175,26,3.753,1,5.85,9.0,3.15
9157175,27,3.80399999999994,1,2.25,9.0,6.75
9157175,28,1.63599999999994,1,4.05,9.0,4.95
9157175,29,4.404,0,-4.5,4.5,9.0
9157175,30,6.716,1,2.7,9.0,6.3
9157175,31,2.847,1,-1.35,7.6499999999999995,9.0
9157175,32,1.814,1,-0.45,8.549999999999999,9.0
9157175,33,2.984,0,-7.2,1.7999999999999998,9.0
9157175,34,3.762,1,-0.9,8.1,9.0
9157175,35,7.79699999999994,1,6.75,9.0,2.25
9157175,36,3.59099999999994,1,5.4,9.0,3.5999999999999996
9157175,37,3.429,1,0.0,9.0,9.0
9157175,38,1.882,1,3.15,9.0,5.85
9157175,39,2.057,1,3.6,9.0,5.3999999999999995
9157175,40,1.639,1,7.65,9.0,1.3499999999999999
9157201,1,5.043,0,-7.95,22.05,30.0
9157201,3,8.111,1,-2.55,30.0,32.55
9157201,5,9.798,0,-7.8,30.0,37.8
9157201,6,5.305,0,-12.0,30.0,42.0
9157201,7,5.766,0,1.65,30.0,28.35
9157201,8,3.471,1,-0.6,29.4,30.0
9157201,9,3.18700000000001,0,-5.7,30.0,35.7
9157201,10,4.08999999999999,1,-2.7,27.3,30.0
9157201,11,3.279,1,6.9,30.0,23.1
9157201,12,2.677,1,10.95,40.95,30.0
9157201,13,2.083,0,-3.75,26.25,30.0
9157201,14,3.192,1,4.65,34.65,30.0
9157201,15,2.089,1,9.9,39.9,30.0
9157201,16,1.1520000000000301,1,8.85,38.849999999999994,30.0
9157201,17,2.044,1,5.85,30.0,24.15
9157201,18,1.41500000000003,1,3.6,33.6,30.0
9157201,19,2.121,0,-0.45,30.0,30.45
9157201,20,1.74699999999997,1,1.5,31.5,30.0
9157201,21,12.489,0,-8.85,9.0,17.849999999999998
9157201,22,11.593,0,-5.85,3.15,9.0
9157201,23,5.75499999999997,1,6.9,9.0,2.1
9157201,24,3.822,0,-6.75,9.0,15.75
9157201,25,5.23700000000003,1,7.8,16.8,9.0
9157201,26,3.874,1,5.7,14.7,9.0
9157201,27,3.323,0,-2.55,9.0,11.549999999999999
9157201,28,4.485,0,-7.95,1.05,9.0
9157201,29,3.846,1,10.95,19.95,9.0
9157201,30,3.50999999999997,0,-0.45,9.0,9.45
9157201,31,2.348,1,12.0,21.0,9.0
9157201,32,2.412,0,-9.9,9.0,18.9
9157201,33,1.3,0,-4.65,9.0,13.65
9157201,34,3.977,0,-4.8,4.2,9.0
9157201,35,5.29200000000003,0,-1.65,7.35,9.0
9157201,36,2.012,0,-1.5,9.0,10.5
9157201,37,1.746,1,3.6,12.6,9.0
9157201,38,2.172,0,-2.7,6.3,9.0
9157201,39,2.84400000000006,0,0.6,9.0,8.4
9157201,40,4.342,0,-3.75,5.25,9.0
9157213,1,2.11429999998212,0,0.0,30.0,30.0
9157213,2,1.8925,1,7.5,30.0,22.5
9157213,3,1.70619999998808,1,-3.75,30.0,33.75
9157213,4,4.181,1,3.75,30.0,26.25
9157213,5,2.72969999998808,0,0.75,30.75,30.0
9157213,6,5.575599999994041,1,5.25,35.25,30.0
9157213,7,2.69430000001192,1,-1.5,30.0,31.5
9157213,8,2.95130000001192,1,3.0,30.0,27.0
9157213,9,3.46709999999404,0,-1.5,28.5,30.0
9157213,10,2.49630000001192,1,5.25,30.0,24.75
9157213,11,2.558,0,-8.25,21.75,30.0
9157213,12,2.10409999999404,1,6.0,30.0,24.0
9157213,13,3.41609999999404,0,-2.25,30.0,32.25
9157213,14,3.03120000001788,1,3.0,33.0,30.0
9157213,15,1.9925,0,-4.5,30.0,34.5
9157213,16,2.10070000001788,0,-6.0,30.0,36.0
9157213,17,1.82610000002384,1,-4.5,25.5,30.0
9157213,18,5.10430000001192,0,-2.25,27.75,30.0
9157213,19,1.77990000000596,0,-6.75,23.25,30.0
9157213,20,2.47469999998808,0,-0.75,29.25,30.0
9157213,21,4.35860000002384,1,-4.5,9.0,13.5
9157213,22,6.34780000001192,0,0.0,9.0,9.0
9157213,23,2.01259999999404,0,5.25,14.25,9.0
9157213,24,1.5445,0,-4.5,4.5,9.0
9157213,25,5.247200000017879,0,3.75,12.75,9.0
9157213,26,2.42389999997616,1,7.5,9.0,1.5
9157213,27,1.46509999999404,1,3.75,9.0,5.25
9157213,28,1.87490000000596,0,-0.75,8.25,9.0
9157213,29,1.68140000000596,0,0.75,9.75,9.0
9157213,30,2.8555,1,6.0,9.0,3.0
9157213,31,1.70459999999404,0,3.0,12.0,9.0
9157213,32,1.84859999999404,0,-5.25,3.75,9.0
9157213,33,2.375,1,-6.0,9.0,15.0
9157213,34,4.36469999998808,1,6.75,9.0,2.25
9157213,35,1.838,0,-2.25,6.75,9.0
9157213,36,1.73420000001788,1,-2.25,9.0,11.25
9157213,37,2.3745,1,3.0,9.0,6.0
9157213,38,1.16839999997616,0,-8.25,0.75,9.0
9157213,39,1.0482999999821199,0,-1.5,7.5,9.0
9157213,40,1.28770000001788,1,-1.5,9.0,10.5
9158390,1,6.00629999999702,0,-3.75,26.25,30.0
9158390,2,4.96790000000596,1,-0.6,29.4,30.0
9158390,3,3.97979999999702,1,4.65,34.65,30.0
9158390,4,1.8735,1,6.75,36.75,30.0
9158390,5,6.447,1,6.9,30.0,23.1
9158390,6,2.8465,0,-12.0,30.0,42.0
9158390,7,2.3685,1,4.8,30.0,25.2
9158390,8,3.23409999999404,1,10.95,40.95,30.0
9158390,9,4.764799999997019,1,8.85,38.849999999999994,30.0
9158390,10,2.26,1,3.6,33.6,30.0
9158390,11,2.08640000000596,0,-5.7,30.0,35.7
9158390,12,1.89569999998808,1,9.9,39.9,30.0
9158390,13,3.43789999999106,0,-0.45,30.0,30.45
9158390,14,4.9385,0,-2.55,30.0,32.55
9158390,15,6.32129999999702,0,1.65,30.0,28.35
9158390,16,2.2168999999910604,0,-2.7,27.3,30.0
9158390,17,3.04890000000596,1,1.5,31.5,30.0
9158390,18,2.03209999999404,1,5.85,30.0,24.15
9158390,19,2.09470000000298,0,-7.95,22.05,30.0
9158390,20,2.82940000000596,0,-7.8,30.0,37.8
9158390,21,6.54629999999702,0,-2.7,6.3,9.0
9158390,22,5.19590000000596,0,-5.85,3.15,9.0
9158390,23,9.785900000005961,0,-6.75,9.0,15.75
9158390,24,7.178299999997019,1,10.95,19.95,9.0
9158390,25,12.8738999999911,0,-7.95,1.05,9.0
9158390,26,8.0425,0,-1.65,7.35,9.0
9158390,27,5.402399999991061,0,-8.85,9.0,17.849999999999998
9158390,28,6.275,1,-0.45,9.0,9.45
9158390,29,6.709400000005959,1,0.6,9.0,8.4
9158390,30,1.83379999999702,0,-2.55,9.0,11.549999999999999
9158390,31,3.0447000000029796,1,6.9,9.0,2.1
9158390,32,7.8949000000059595,1,5.7,14.7,9.0
9158390,33,3.3402000000029797,0,-4.8,4.2,9.0
9158390,34,3.80259999999404,0,-3.75,5.25,9.0
9158390,35,1.559,1,7.8,16.8,9.0
9158390,36,2.34789999999106,1,3.6,12.6,9.0
9158390,37,10.228200000003,0,-1.5,9.0,10.5
9158390,38,3.84679999999702,0,-9.9,9.0,18.9
9158390,39,1.653,0,-4.65,9.0,13.65
9158390,40,1.42370000000298,1,12.0,21.0,9.0
9158415,1,3.7717999999523197,0,-19.25,10.75,30.0
9158415,2,2.85630000001192,0,8.75,30.0,21.25
9158415,3,1.61889999997616,1,3.5,33.5,30.0
9158415,4,1.02490000003576,0,-5.25,30.0,35.25
9158415,5,1.60430000001192,0,-10.5,30.0,40.5
9158415,6,1.18440000003576,0,-12.25,30.0,42.25
9158415,7,1.27290000003576,0,3.5,30.0,26.5
9158415,8,2.21579999995232,1,17.5,30.0,12.5
9158415,9,1.58130000001192,1,8.75,38.75,30.0
9158415,10,1.87889999997616,0,-14.0,16.0,30.0
9158415,11,1.50019999998808,0,-12.25,17.75,30.0
9158415,12,1.52979999995232,0,0.0,30.0,30.0
9158415,13,1.9275,0,-15.75,14.25,30.0
9158415,14,1.38520000004768,0,1.75,30.0,28.25
9158415,15,2.38830000001192,0,-10.5,19.5,30.0
9158415,16,1.21169999998808,1,7.0,37.0,30.0
9158415,17,1.14740000003576,0,5.25,30.0,24.75
9158415,18,0.933,0,7.0,30.0,23.0
9158415,19,0.879399999976158,0,-14.0,30.0,44.0
9158415,20,0.861799999952316,0,-1.75,30.0,31.75
9158415,21,2.51410000002384,1,10.5,31.499999999999996,21.0
9158415,22,1.2895,0,-19.25,1.75,21.0
9158415,23,1.12509999996424,1,15.75,21.0,5.25
9158415,24,1.547,0,-14.0,21.0,35.0
9158415,25,1.1097999999523198,1,3.5,24.5,21.0
9158415,26,1.1345,0,8.75,21.0,12.25
9158415,27,1.02010000002384,1,12.25,21.0,8.75
9158415,28,0.985599999964237,1,14.0,21.0,7.0
9158415,29,0.895200000047684,1,8.75,29.749999999999996,21.0
9158415,30,1.35310000002384,0,10.5,21.0,10.5
9158415,31,1.28969999998808,0,1.75,21.0,19.25
9158415,32,1.009,1,0.0,21.0,21.0
9158415,33,0.903099999964237,1,-5.25,15.749999999999998,21.0
9158415,34,0.8805,0,-1.75,21.0,22.75
9158415,35,0.9343999999761581,0,-12.25,21.0,33.25
9158415,36,1.3305,1,17.5,21.0,3.5
9158415,37,1.09160000002384,0,7.0,21.0,14.0
9158415,38,0.9623000000119211,1,5.25,26.25,21.0
9158415,39,1.02180000001192,1,-3.5,17.5,21.0
9158415,40,0.8491999999880789,1,7.0,28.0,21.0
9158418,1,3.042,1,-1.35,28.65,30.0
9158418,2,5.072,1,-4.05,25.95,30.0
9158418,3,4.533,1,-8.55,21.45,30.0
9158418,4,4.134,0,0.9,30.0,29.1
9158418,5,1.257,1,-1.8,28.2,30.0
9158418,6,3.837,0,-4.95,25.05,30.0
9158418,7,3.46899999999999,0,-8.1,21.9,30.0
9158418,8,2.503,0,2.25,30.0,27.75
9158418,9,2.288,1,-0.45,29.549999999999997,30.0
9158418,10,4.912,1,-3.15,26.85,30.0
9158418,11,2.003,0,-6.75,23.25,30.0
9158418,12,3.995,0,3.6,30.0,26.4
9158418,13,2.01400000000001,0,-7.65,22.35,30.0
9158418,14,1.95100000000001,0,2.7,30.0,27.3
9158418,15,2.19500000000003,1,5.85,30.0,24.15
9158418,16,6.036,0,-4.5,25.5,30.0
9158418,17,1.462,0,-5.4,24.6,30.0
9158418,18,1.119,0,-6.3,23.7,30.0
9158418,19,1.66,1,7.2,30.0,22.8
9158418,20,2.764,0,0.0,30.0,30.0
9158418,21,6.515,1,-0.45,8.549999999999999,9.0
9158418,22,4.15399999999997,0,-4.95,4.05,9.0
9158418,23,2.275,1,8.1,9.0,0.8999999999999999
9158418,24,5.542,0,4.05,9.0,4.95
9158418,25,2.951,0,2.25,9.0,6.75
9158418,26,1.57999999999997,0,-8.55,0.44999999999999996,9.0
9158418,27,4.809,1,3.6,9.0,5.3999999999999995
9158418,28,2.714,1,-1.35,7.6499999999999995,9.0
9158418,29,1.25300000000003,1,6.75,9.0,2.25
9158418,30,1.63300000000003,0,1.8,9.0,7.199999999999999
9158418,31,3.04400000000003,0,-7.2,1.7999999999999998,9.0
9158418,32,2.09100000000003,1,7.65,9.0,1.3499999999999999
9158418,33,1.582,1,-0.9,8.1,9.0
9158418,34,1.361,0,-6.3,2.6999999999999997,9.0
9158418,35,1.97700000000003,0,-4.5,4.5,9.0
9158418,36,1.42,0,2.7,9.0,6.3
9158418,37,1.27199999999997,1,5.4,9.0,3.5999999999999996
9158418,38,1.3,0,3.15,9.0,5.85
9158418,39,1.642,1,0.0,9.0,9.0
9158418,40,1.42599999999997,1,5.85,9.0,3.15
9158535,1,5.228,1,5.25,30.0,24.75
9158535,2,4.896,0,0.75,30.75,30.0
9158535,3,9.171,1,-1.5,30.0,31.5
9158535,4,3.925,1,3.0,30.0,27.0
9158535,5,4.216,1,3.75,30.0,26.25
9158535,6,5.28,1,-4.5,30.0,34.5
9158535,7,5.311,1,6.0,30.0,24.0
9158535,8,3.425,0,-6.75,23.25,30.0
9158535,9,7.444,0,0.0,30.0,30.0
9158535,10,6.23,1,-2.25,30.0,32.25
9158535,11,1.949,0,5.25,35.25,30.0
9158535,12,2.93,0,-0.75,29.25,30.0
9158535,13,1.707,0,-4.5,25.5,30.0
9158535,14,6.402,1,-6.0,30.0,36.0
9158535,15,2.37,0,-2.25,27.75,30.0
9158535,16,2.568,0,3.0,33.0,30.0
9158535,17,1.549,0,-8.25,21.75,30.0
9158535,18,11.839,1,7.5,30.0,22.5
9158535,19,9.717,0,-1.5,28.5,30.0
9158535,20,4.961,1,-3.75,30.0,33.75
9158535,22,9.474,0,-1.5,7.5,9.0
9158535,23,11.522,1,-4.5,9.0,13.5
9158535,24,7.358,0,-8.25,0.75,9.0
9158535,25,3.887,0,5.25,14.25,9.0
9158535,26,2.556,0,-5.25,3.75,9.0
9158535,27,4.307,1,-1.5,9.0,10.5
9158535,28,2.683,1,6.0,9.0,3.0
9158535,29,2.538,0,0.75,9.75,9.0
9158535,30,2.832,1,-2.25,9.0,11.25
9158535,31,1.98,0,3.0,12.0,9.0
9158535,32,1.128,1,3.0,9.0,6.0
9158535,33,1.331,1,7.5,9.0,1.5
9158535,34,1.04,1,6.75,9.0,2.25
9158535,35,1.745,0,-4.5,4.5,9.0
9158535,36,3.026,0,3.75,12.75,9.0
9158535,37,1.884,0,-0.75,8.25,9.0
9158535,38,1.97,0,0.0,9.0,9.0
9158535,39,4.412,1,3.75,9.0,5.25
9158535,40,3.23,1,-6.0,9.0,15.0
