"Participant.Private.ID","Trial.Number","Reaction.Time","Response","L1H","L1PrH","L1M","L1PrM","L1L","L1PrL","L2H","L2PrH","L2M","L2PrM","L2L","L2PrL"
9156374,1,5968,0,NA,NA,30,1,NA,NA,75,0.15,30,0.7,0,0.15
9156374,2,3920,1,NA,NA,30,1,NA,NA,35,0.15,30,0.7,0,0.15
9156374,3,4045,1,NA,NA,30,1,NA,NA,25,0.15,30,0.7,0,0.15
9156374,4,4630,1,55,0.15,30,0.7,0,0.15,NA,NA,30,1,NA,NA
9156374,5,5052,1,60,0.15,30,0.7,0,0.15,NA,NA,30,1,NA,NA
9156374,6,2897,1,50,0.15,30,0.7,0,0.15,NA,NA,30,1,NA,NA
9156374,7,4931,0,NA,NA,30,1,NA,NA,90,0.15,30,0.7,0,0.15
9156374,8,3006,0,30,0.15,30,0.7,0,0.15,NA,NA,30,1,NA,NA
9156374,9,3596,1,NA,NA,30,1,NA,NA,10,0.15,30,0.7,0,0.15
9156374,10,3099,1,80,0.15,30,0.7,0,0.15,NA,NA,30,1,NA,NA
9156374,11,3175,0,NA,NA,30,1,NA,NA,70,0.15,30,0.7,0,0.15
9156374,12,2695,1,NA,NA,30,1,NA,NA,20,0.15,30,0.7,0,0.15
9156374,13,4874,1,45,0.15,30,0.7,0,0.15,NA,NA,30,1,NA,NA
9156374,14,2885,1,NA,NA,30,1,NA,NA,40,0.15,30,0.7,0,0.15
9156374,15,1769,0,5,0.15,30,0.7,0,0.15,NA,NA,30,1,NA,NA
9156374,16,3090,0,15,0.15,30,0.7,0,0.15,NA,NA,30,1,NA,NA
9156374,17,3112,0,NA,NA,30,1,NA,NA,85,0.15,30,0.7,0,0.15
9156374,18,3383,0,NA,NA,30,1,NA,NA,100,0.15,30,0.7,0,0.15
9156374,19,2056,1,95,0.15,30,0.7,0,0.15,NA,NA,30,1,NA,NA
9156374,20,3406,1,65,0.15,30,0.7,0,0.15,NA,NA,30,1,NA,NA
9156374,21,5895,0,45,0.15,NA,NA,0,0.85,NA,NA,30,0.3,0,0.7
9156374,22,6105,1,NA,NA,30,0.3,0,0.7,15,0.15,NA,NA,0,0.85
9156374,23,5971,0,85,0.15,NA,NA,0,0.85,NA,NA,30,0.3,0,0.7
9156374,24,3603,1,NA,NA,30,0.3,0,0.7,35,0.15,NA,NA,0,0.85
9156374,25,4962,0,55,0.15,NA,NA,0,0.85,NA,NA,30,0.3,0,0.7
9156374,26,4447,1,NA,NA,30,0.3,0,0.7,10,0.15,NA,NA,0,0.85
9156374,27,5142,1,80,0.15,NA,NA,0,0.85,NA,NA,30,0.3,0,0.7
9156374,28,2919,0,NA,NA,30,0.3,0,0.7,90,0.15,NA,NA,0,0.85
9156374,29,3072,1,NA,NA,30,0.3,0,0.7,20,0.15,NA,NA,0,0.85
9156374,30,3932,1,95,0.15,NA,NA,0,0.85,NA,NA,30,0.3,0,0.7
9156374,31,5287,0,NA,NA,30,0.3,0,0.7,70,0.15,NA,NA,0,0.85
9156374,32,4386,0,NA,NA,30,0.3,0,0.7,100,0.15,NA,NA,0,0.85
9156374,33,3008,0,30,0.15,NA,NA,0,0.85,NA,NA,30,0.3,0,0.7
9156374,34,2359,1,65,0.15,NA,NA,0,0.85,NA,NA,30,0.3,0,0.7
9156374,35,2416,0,NA,NA,30,0.3,0,0.7,75,0.15,NA,NA,0,0.85
9156374,36,3007,1,NA,NA,30,0.3,0,0.7,40,0.15,NA,NA,0,0.85
9156374,37,4838,0,60,0.15,NA,NA,0,0.85,NA,NA,30,0.3,0,0.7
9156374,38,4171,1,50,0.15,NA,NA,0,0.85,NA,NA,30,0.3,0,0.7
9156374,39,2411,0,5,0.15,NA,NA,0,0.85,NA,NA,30,0.3,0,0.7
9156374,40,1913,0,25,0.15,NA,NA,0,0.85,NA,NA,30,0.3,0,0.7
9156482,1,5841.59999996424,1,NA,NA,30,1,NA,NA,45,0.35,30,0.3,0,0.35
9156482,2,4708.10000002384,0,NA,NA,30,1,NA,NA,90,0.35,30,0.3,0,0.35
9156482,3,4244.09999996424,0,15,0.35,30,0.3,0,0.35,NA,NA,30,1,NA,NA
9156482,4,5243.39999997616,1,NA,NA,30,1,NA,NA,50,0.35,30,0.3,0,0.35
9156482,5,2670.59999996424,1,NA,NA,30,1,NA,NA,10,0.35,30,0.3,0,0.35
9156482,6,9680.60000002384,0,30,0.35,30,0.3,0,0.35,NA,NA,30,1,NA,NA
9156482,7,5372.40000003576,0,25,0.35,30,0.3,0,0.35,NA,NA,30,1,NA,NA
9156482,8,6876.10000002384,0,70,0.35,30,0.3,0,0.35,NA,NA,30,1,NA,NA
9156482,9,3547.30000001192,0,NA,NA,30,1,NA,NA,100,0.35,30,0.3,0,0.35
9156482,10,1936,1,NA,NA,30,1,NA,NA,35,0.35,30,0.3,0,0.35
9156482,11,2569.30000001192,0,5,0.35,30,0.3,0,0.35,NA,NA,30,1,NA,NA
9156482,12,1908.80000001192,1,NA,NA,30,1,NA,NA,65,0.35,30,0.3,0,0.35
9156482,13,1782.5,1,NA,NA,30,1,NA,NA,40,0.35,30,0.3,0,0.35
9156482,14,1599.69999998808,1,NA,NA,30,1,NA,NA,75,0.35,30,0.3,0,0.35
9156482,15,3775.30000001192,1,NA,NA,30,1,NA,NA,60,0.35,30,0.3,0,0.35
9156482,16,2326.10000002384,0,20,0.35,30,0.3,0,0.35,NA,NA,30,1,NA,NA
9156482,17,2524.40000003576,0,NA,NA,30,1,NA,NA,95,0.35,30,0.3,0,0.35
9156482,18,2136.39999997616,1,85,0.35,30,0.3,0,0.35,NA,NA,30,1,NA,NA
9156482,19,1501.10000002384,0,80,0.35,30,0.3,0,0.35,NA,NA,30,1,NA,NA
9156482,20,1505,1,NA,NA,30,1,NA,NA,55,0.35,30,0.3,0,0.35
9156482,21,6980.20000004768,0,5,0.35,NA,NA,0,0.65,NA,NA,30,0.7,0,0.3
9156482,22,6025.10000002384,0,80,0.35,NA,NA,0,0.65,NA,NA,30,0.7,0,0.3
9156482,23,6490.19999998808,0,45,0.35,NA,NA,0,0.65,NA,NA,30,0.7,0,0.3
9156482,24,5023.69999998808,0,75,0.35,NA,NA,0,0.65,NA,NA,30,0.7,0,0.3
9156482,25,4614,1,NA,NA,30,0.7,0,0.3,15,0.35,NA,NA,0,0.65
9156482,26,3278.60000002384,1,NA,NA,30,0.7,0,0.3,40,0.35,NA,NA,0,0.65
9156482,27,1661.10000002384,1,NA,NA,30,0.7,0,0.3,30,0.35,NA,NA,0,0.65
9156482,28,1808.69999998808,1,NA,NA,30,0.7,0,0.3,35,0.35,NA,NA,0,0.65
9156482,29,3586.80000001192,0,NA,NA,30,0.7,0,0.3,100,0.35,NA,NA,0,0.65
9156482,30,1026.80000001192,1,NA,NA,30,0.7,0,0.3,25,0.35,NA,NA,0,0.65
9156482,31,1893.5,0,60,0.35,NA,NA,0,0.65,NA,NA,30,0.7,0,0.3
9156482,32,2643.09999996424,0,70,0.35,NA,NA,0,0.65,NA,NA,30,0.7,0,0.3
9156482,33,3771.40000003576,1,NA,NA,30,0.7,0,0.3,65,0.35,NA,NA,0,0.65
9156482,34,2782.89999997616,0,85,0.35,NA,NA,0,0.65,NA,NA,30,0.7,0,0.3
9156482,35,1554.69999998808,1,90,0.35,NA,NA,0,0.65,NA,NA,30,0.7,0,0.3
9156482,36,2399.5,1,NA,NA,30,0.7,0,0.3,20,0.35,NA,NA,0,0.65
9156482,37,4449,0,NA,NA,30,0.7,0,0.3,95,0.35,NA,NA,0,0.65
9156482,38,6118.69999998808,0,50,0.35,NA,NA,0,0.65,NA,NA,30,0.7,0,0.3
9156482,39,1544.19999998808,1,NA,NA,30,0.7,0,0.3,10,0.35,NA,NA,0,0.65
9156482,40,2193.5,1,NA,NA,30,0.7,0,0.3,55,0.35,NA,NA,0,0.65
9156521,1,8811.09999996424,1,70,0.49,30,0.3,0,0.21,NA,NA,30,1,NA,NA
9156521,2,5930.19999998808,0,45,0.49,30,0.3,0,0.21,NA,NA,30,1,NA,NA
9156521,3,7774.70000004768,1,NA,NA,30,1,NA,NA,50,0.49,30,0.3,0,0.21
9156521,4,6002,1,NA,NA,30,1,NA,NA,30,0.49,30,0.3,0,0.21
9156521,5,4530.5,1,NA,NA,30,1,NA,NA,15,0.49,30,0.3,0,0.21
9156521,6,5865.69999998808,0,40,0.49,30,0.3,0,0.21,NA,NA,30,1,NA,NA
9156521,7,7413.20000004768,1,85,0.49,30,0.3,0,0.21,NA,NA,30,1,NA,NA
9156521,8,4242.69999998808,1,NA,NA,30,1,NA,NA,20,0.49,30,0.3,0,0.21
9156521,9,4063.5,0,NA,NA,30,1,NA,NA,95,0.49,30,0.3,0,0.21
9156521,11,3825,1,NA,NA,30,1,NA,NA,5,0.49,30,0.3,0,0.21
9156521,12,6450.10000002384,1,60,0.49,30,0.3,0,0.21,NA,NA,30,1,NA,NA
9156521,13,6988.60000002384,1,NA,NA,30,1,NA,NA,10,0.49,30,0.3,0,0.21
9156521,14,2050.29999995232,0,NA,NA,30,1,NA,NA,100,0.49,30,0.3,0,0.21
9156521,15,3080,1,80,0.49,30,0.3,0,0.21,NA,NA,30,1,NA,NA
9156521,16,1656.39999997616,1,NA,NA,30,1,NA,NA,35,0.49,30,0.3,0,0.21
9156521,17,2086.09999996424,1,NA,NA,30,1,NA,NA,65,0.49,30,0.3,0,0.21
9156521,18,4543.5,0,25,0.49,30,0.3,0,0.21,NA,NA,30,1,NA,NA
9156521,19,4601.40000003576,0,NA,NA,30,1,NA,NA,75,0.49,30,0.3,0,0.21
9156521,20,3037.60000002384,0,NA,NA,30,1,NA,NA,90,0.49,30,0.3,0,0.21
9156521,22,5210.39999997616,1,90,0.49,NA,NA,0,0.51,NA,NA,30,0.7,0,0.3
9156521,23,4798.70000004768,0,45,0.49,NA,NA,0,0.51,NA,NA,30,0.7,0,0.3
9156521,24,4785.19999998808,1,NA,NA,30,0.7,0,0.3,55,0.49,NA,NA,0,0.51
9156521,25,5106.39999997616,0,40,0.49,NA,NA,0,0.51,NA,NA,30,0.7,0,0.3
9156521,26,6115.79999995232,1,NA,NA,30,0.7,0,0.3,5,0.49,NA,NA,0,0.51
9156521,27,2565.29999995232,1,NA,NA,30,0.7,0,0.3,20,0.49,NA,NA,0,0.51
9156521,28,2156.29999995232,1,NA,NA,30,0.7,0,0.3,75,0.49,NA,NA,0,0.51
9156521,29,3258.39999997616,1,NA,NA,30,0.7,0,0.3,65,0.49,NA,NA,0,0.51
9156521,30,2261.89999997616,1,NA,NA,30,0.7,0,0.3,10,0.49,NA,NA,0,0.51
9156521,31,3020.69999998808,1,NA,NA,30,0.7,0,0.3,100,0.49,NA,NA,0,0.51
9156521,32,7115.59999996424,1,NA,NA,30,0.7,0,0.3,95,0.49,NA,NA,0,0.51
9156521,33,3269.19999998808,0,85,0.49,NA,NA,0,0.51,NA,NA,30,0.7,0,0.3
9156521,34,4226.79999995232,0,60,0.49,NA,NA,0,0.51,NA,NA,30,0.7,0,0.3
9156521,35,1271.69999998808,0,80,0.49,NA,NA,0,0.51,NA,NA,30,0.7,0,0.3
9156521,36,1717.5,1,NA,NA,30,0.7,0,0.3,50,0.49,NA,NA,0,0.51
9156521,37,1074.20000004768,0,35,0.49,NA,NA,0,0.51,NA,NA,30,0.7,0,0.3
9156521,38,800.399999976158,1,NA,NA,30,0.7,0,0.3,30,0.49,NA,NA,0,0.51
9156521,39,3457.40000003576,1,NA,NA,30,0.7,0,0.3,70,0.49,NA,NA,0,0.51
9156521,40,4505.89999997616,1,NA,NA,30,0.7,0,0.3,15,0.49,NA,NA,0,0.51
9156545,1,7726.99999999999,0,NA,NA,30,1,NA,NA,80,0.21,30,0.7,0,0.09
9156545,2,6548.00000000001,0,30,0.21,30,0.7,0,0.09,NA,NA,30,1,NA,NA
9156545,3,8689,0,NA,NA,30,1,NA,NA,55,0.21,30,0.7,0,0.09
9156545,4,4927,1,40,0.21,30,0.7,0,0.09,NA,NA,30,1,NA,NA
9156545,5,7331.99999999997,0,NA,NA,30,1,NA,NA,45,0.21,30,0.7,0,0.09
9156545,6,3962.00000000003,0,5,0.21,30,0.7,0,0.09,NA,NA,30,1,NA,NA
9156545,7,5112,1,65,0.21,30,0.7,0,0.09,NA,NA,30,1,NA,NA
9156545,8,4533,0,NA,NA,30,1,NA,NA,70,0.21,30,0.7,0,0.09
9156545,9,6245.00000000003,1,NA,NA,30,1,NA,NA,35,0.21,30,0.7,0,0.09
9156545,10,4510,1,75,0.21,30,0.7,0,0.09,NA,NA,30,1,NA,NA
9156545,11,5751,1,NA,NA,30,1,NA,NA,10,0.21,30,0.7,0,0.09
9156545,12,4794,1,90,0.21,30,0.7,0,0.09,NA,NA,30,1,NA,NA
9156545,13,4199,1,60,0.21,30,0.7,0,0.09,NA,NA,30,1,NA,NA
9156545,14,3539.99999999997,1,50,0.21,30,0.7,0,0.09,NA,NA,30,1,NA,NA
9156545,15,3841.99999999997,1,NA,NA,30,1,NA,NA,15,0.21,30,0.7,0,0.09
9156545,16,3005.00000000003,1,NA,NA,30,1,NA,NA,20,0.21,30,0.7,0,0.09
9156545,17,4586,0,25,0.21,30,0.7,0,0.09,NA,NA,30,1,NA,NA
9156545,18,3727,1,85,0.21,30,0.7,0,0.09,NA,NA,30,1,NA,NA
9156545,19,3375,1,95,0.21,30,0.7,0,0.09,NA,NA,30,1,NA,NA
9156545,20,3949,0,NA,NA,30,1,NA,NA,100,0.21,30,0.7,0,0.09
9156545,22,6216,1,95,0.21,NA,NA,0,0.79,NA,NA,30,0.3,0,0.7
9156545,23,7955,0,NA,NA,30,0.3,0,0.7,55,0.21,NA,NA,0,0.79
9156545,24,9532,0,30,0.21,NA,NA,0,0.79,NA,NA,30,0.3,0,0.7
9156545,25,6503.99999999994,0,15,0.21,NA,NA,0,0.79,NA,NA,30,0.3,0,0.7
9156545,26,5190,1,NA,NA,30,0.3,0,0.7,10,0.21,NA,NA,0,0.79
9156545,27,8186,0,35,0.21,NA,NA,0,0.79,NA,NA,30,0.3,0,0.7
9156545,28,9100,1,60,0.21,NA,NA,0,0.79,NA,NA,30,0.3,0,0.7
9156545,29,3544.99999999994,0,5,0.21,NA,NA,0,0.79,NA,NA,30,0.3,0,0.7
9156545,30,7400,1,70,0.21,NA,NA,0,0.79,NA,NA,30,0.3,0,0.7
9156545,31,6393,0,NA,NA,30,0.3,0,0.7,85,0.21,NA,NA,0,0.79
9156545,32,2821,1,100,0.21,NA,NA,0,0.79,NA,NA,30,0.3,0,0.7
9156545,33,3096,0,NA,NA,30,0.3,0,0.7,90,0.21,NA,NA,0,0.79
9156545,34,3073,0,NA,NA,30,0.3,0,0.7,65,0.21,NA,NA,0,0.79
9156545,35,3548.00000000006,0,NA,NA,30,0.3,0,0.7,50,0.21,NA,NA,0,0.79
9156545,36,4098,0,25,0.21,NA,NA,0,0.79,NA,NA,30,0.3,0,0.7
9156545,37,4882,1,80,0.21,NA,NA,0,0.79,NA,NA,30,0.3,0,0.7
9156545,38,2563,0,20,0.21,NA,NA,0,0.79,NA,NA,30,0.3,0,0.7
9156545,39,3201,0,NA,NA,30,0.3,0,0.7,45,0.21,NA,NA,0,0.79
9156545,40,6053,0,NA,NA,30,0.3,0,0.7,40,0.21,NA,NA,0,0.79
9156644,1,4974,1,80,0.21,30,0.3,0,0.49,NA,NA,30,1,NA,NA
9156644,2,5797,1,NA,NA,30,1,NA,NA,15,0.21,30,0.3,0,0.49
9156644,3,4250,0,10,0.21,30,0.3,0,0.49,NA,NA,30,1,NA,NA
9156644,4,5927,1,65,0.21,30,0.3,0,0.49,NA,NA,30,1,NA,NA
9156644,5,5399,1,NA,NA,30,1,NA,NA,5,0.21,30,0.3,0,0.49
9156644,6,3606,0,NA,NA,30,1,NA,NA,70,0.21,30,0.3,0,0.49
9156644,7,3388,0,NA,NA,30,1,NA,NA,40,0.21,30,0.3,0,0.49
9156644,8,9090,0,25,0.21,30,0.3,0,0.49,NA,NA,30,1,NA,NA
9156644,10,5090,0,NA,NA,30,1,NA,NA,50,0.21,30,0.3,0,0.49
9156644,12,6643.99999999997,1,20,0.21,30,0.3,0,0.49,NA,NA,30,1,NA,NA
9156644,13,5863,1,NA,NA,30,1,NA,NA,100,0.21,30,0.3,0,0.49
9156644,14,4461,1,95,0.21,30,0.3,0,0.49,NA,NA,30,1,NA,NA
9156644,15,9731,0,NA,NA,30,1,NA,NA,35,0.21,30,0.3,0,0.49
9156644,16,1316,1,75,0.21,30,0.3,0,0.49,NA,NA,30,1,NA,NA
9156644,17,1271.99999999997,1,85,0.21,30,0.3,0,0.49,NA,NA,30,1,NA,NA
9156644,18,1856,1,45,0.21,30,0.3,0,0.49,NA,NA,30,1,NA,NA
9156644,19,1618,0,NA,NA,30,1,NA,NA,55,0.21,30,0.3,0,0.49
9156644,20,1348,1,60,0.21,30,0.3,0,0.49,NA,NA,30,1,NA,NA
9156644,21,8894.99999999997,0,NA,NA,30,0.7,0,0.3,95,0.21,NA,NA,0,0.79
9156644,22,8761.00000000003,0,75,0.21,NA,NA,0,0.79,NA,NA,30,0.7,0,0.3
9156644,23,7622,0,40,0.21,NA,NA,0,0.79,NA,NA,30,0.7,0,0.3
9156644,24,2569,0,10,0.21,NA,NA,0,0.79,NA,NA,30,0.7,0,0.3
9156644,25,3030,1,NA,NA,30,0.7,0,0.3,15,0.21,NA,NA,0,0.79
9156644,26,4821.00000000003,0,55,0.21,NA,NA,0,0.79,NA,NA,30,0.7,0,0.3
9156644,27,2436,1,NA,NA,30,0.7,0,0.3,30,0.21,NA,NA,0,0.79
9156644,28,2675.99999999994,1,NA,NA,30,0.7,0,0.3,60,0.21,NA,NA,0,0.79
9156644,29,4764,1,100,0.21,NA,NA,0,0.79,NA,NA,30,0.7,0,0.3
9156644,30,5637,1,NA,NA,30,0.7,0,0.3,50,0.21,NA,NA,0,0.79
9156644,31,10395,1,NA,NA,30,0.7,0,0.3,80,0.21,NA,NA,0,0.79
9156644,32,3103,1,NA,NA,30,0.7,0,0.3,25,0.21,NA,NA,0,0.79
9156644,33,5547,0,85,0.21,NA,NA,0,0.79,NA,NA,30,0.7,0,0.3
9156644,34,2967,0,35,0.21,NA,NA,0,0.79,NA,NA,30,0.7,0,0.3
9156644,35,5716.00000000006,1,90,0.21,NA,NA,0,0.79,NA,NA,30,0.7,0,0.3
9156644,36,2037,1,NA,NA,30,0.7,0,0.3,20,0.21,NA,NA,0,0.79
9156644,37,1747,1,NA,NA,30,0.7,0,0.3,65,0.21,NA,NA,0,0.79
9156644,38,1343.00000000006,1,NA,NA,30,0.7,0,0.3,5,0.21,NA,NA,0,0.79
9156644,39,3331,1,70,0.21,NA,NA,0,0.79,NA,NA,30,0.7,0,0.3
9156644,40,1955,0,45,0.21,NA,NA,0,0.79,NA,NA,30,0.7,0,0.3
9156653,1,1989.89999997616,1,25,0.09,30,0.7,0,0.21,NA,NA,30,1,NA,NA
9156653,2,1642.70000004768,1,30,0.09,30,0.7,0,0.21,NA,NA,30,1,NA,NA
9156653,3,4442.40000009537,1,NA,NA,30,1,NA,NA,100,0.09,30,0.7,0,0.21
9156653,4,1494.89999997616,0,50,0.09,30,0.7,0,0.21,NA,NA,30,1,NA,NA
9156653,5,1167,0,15,0.09,30,0.7,0,0.21,NA,NA,30,1,NA,NA
9156653,6,826.700000047684,1,NA,NA,30,1,NA,NA,90,0.09,30,0.7,0,0.21
9156653,7,4788.10000002384,1,NA,NA,30,1,NA,NA,20,0.09,30,0.7,0,0.21
9156653,8,3686.59999990463,0,85,0.09,30,0.7,0,0.21,NA,NA,30,1,NA,NA
9156653,9,2053.5,0,65,0.09,30,0.7,0,0.21,NA,NA,30,1,NA,NA
9156653,10,2107.69999992847,1,NA,NA,30,1,NA,NA,35,0.09,30,0.7,0,0.21
9156653,11,1631.20000004768,0,55,0.09,30,0.7,0,0.21,NA,NA,30,1,NA,NA
9156653,12,2267.89999997616,0,40,0.09,30,0.7,0,0.21,NA,NA,30,1,NA,NA
9156653,13,3221.60000002384,0,5,0.09,30,0.7,0,0.21,NA,NA,30,1,NA,NA
9156653,14,1723.30000007153,0,80,0.09,30,0.7,0,0.21,NA,NA,30,1,NA,NA
9156653,15,2520.39999997616,1,NA,NA,30,1,NA,NA,75,0.09,30,0.7,0,0.21
9156653,16,3843.70000004768,1,NA,NA,30,1,NA,NA,70,0.09,30,0.7,0,0.21
9156653,17,1729.60000002384,0,45,0.09,30,0.7,0,0.21,NA,NA,30,1,NA,NA
9156653,18,3538.5,1,95,0.09,30,0.7,0,0.21,NA,NA,30,1,NA,NA
9156653,19,1561.29999995232,1,NA,NA,30,1,NA,NA,60,0.09,30,0.7,0,0.21
9156653,20,2232.19999992847,0,10,0.09,30,0.7,0,0.21,NA,NA,30,1,NA,NA
9156653,21,6615,0,20,0.09,NA,NA,0,0.91,NA,NA,30,0.3,0,0.7
9156653,22,2511.29999995232,1,NA,NA,30,0.3,0,0.7,25,0.09,NA,NA,0,0.91
9156653,23,4368.79999995232,0,5,0.09,NA,NA,0,0.91,NA,NA,30,0.3,0,0.7
9156653,24,7071.5,0,NA,NA,30,0.3,0,0.7,65,0.09,NA,NA,0,0.91
9156653,25,1398.19999992847,1,95,0.09,NA,NA,0,0.91,NA,NA,30,0.3,0,0.7
9156653,26,2387.19999992847,0,45,0.09,NA,NA,0,0.91,NA,NA,30,0.3,0,0.7
9156653,27,5025.5,0,50,0.09,NA,NA,0,0.91,NA,NA,30,0.3,0,0.7
9156653,28,1661.20000004768,0,NA,NA,30,0.3,0,0.7,75,0.09,NA,NA,0,0.91
9156653,29,1532.5,0,NA,NA,30,0.3,0,0.7,80,0.09,NA,NA,0,0.91
9156653,30,1151.70000004768,1,NA,NA,30,0.3,0,0.7,15,0.09,NA,NA,0,0.91
9156653,31,2982.5,0,NA,NA,30,0.3,0,0.7,70,0.09,NA,NA,0,0.91
9156653,32,5839.60000002384,1,NA,NA,30,0.3,0,0.7,10,0.09,NA,NA,0,0.91
9156653,33,1920.5,1,NA,NA,30,0.3,0,0.7,40,0.09,NA,NA,0,0.91
9156653,34,2825.20000004768,0,NA,NA,30,0.3,0,0.7,60,0.09,NA,NA,0,0.91
9156653,35,3462.70000004768,1,90,0.09,NA,NA,0,0.91,NA,NA,30,0.3,0,0.7
9156653,36,5219.39999997616,1,NA,NA,30,0.3,0,0.7,35,0.09,NA,NA,0,0.91
9156653,37,1605.29999995232,1,85,0.09,NA,NA,0,0.91,NA,NA,30,0.3,0,0.7
9156653,38,4128,1,100,0.09,NA,NA,0,0.91,NA,NA,30,0.3,0,0.7
9156653,39,1065.70000004768,1,NA,NA,30,0.3,0,0.7,55,0.09,NA,NA,0,0.91
9156653,40,1594.39999997616,0,30,0.09,NA,NA,0,0.91,NA,NA,30,0.3,0,0.7
9156665,1,8467,1,75,0.21,30,0.7,0,0.09,NA,NA,30,1,NA,NA
9156665,2,8371,1,25,0.21,30,0.7,0,0.09,NA,NA,30,1,NA,NA
9156665,4,9285,1,85,0.21,30,0.7,0,0.09,NA,NA,30,1,NA,NA
9156665,5,986.000000000015,0,NA,NA,30,1,NA,NA,55,0.21,30,0.7,0,0.09
9156665,6,272,1,NA,NA,30,1,NA,NA,35,0.21,30,0.7,0,0.09
9156665,7,171,0,65,0.21,30,0.7,0,0.09,NA,NA,30,1,NA,NA
9156665,8,4460,0,30,0.21,30,0.7,0,0.09,NA,NA,30,1,NA,NA
9156665,9,2254,0,5,0.21,30,0.7,0,0.09,NA,NA,30,1,NA,NA
9156665,10,1033,0,40,0.21,30,0.7,0,0.09,NA,NA,30,1,NA,NA
9156665,11,1970.00000000001,1,NA,NA,30,1,NA,NA,45,0.21,30,0.7,0,0.09
9156665,12,3845,1,60,0.21,30,0.7,0,0.09,NA,NA,30,1,NA,NA
9156665,13,3790,0,NA,NA,30,1,NA,NA,80,0.21,30,0.7,0,0.09
9156665,14,1568,1,50,0.21,30,0.7,0,0.09,NA,NA,30,1,NA,NA
9156665,15,1294,1,NA,NA,30,1,NA,NA,15,0.21,30,0.7,0,0.09
9156665,16,1062,1,NA,NA,30,1,NA,NA,10,0.21,30,0.7,0,0.09
9156665,17,2340,0,NA,NA,30,1,NA,NA,70,0.21,30,0.7,0,0.09
9156665,18,1020.00000000003,0,NA,NA,30,1,NA,NA,20,0.21,30,0.7,0,0.09
9156665,19,905,1,NA,NA,30,1,NA,NA,100,0.21,30,0.7,0,0.09
9156665,20,3393,1,90,0.21,30,0.7,0,0.09,NA,NA,30,1,NA,NA
9156665,21,5312,0,20,0.21,NA,NA,0,0.79,NA,NA,30,0.3,0,0.7
9156665,22,1422,0,NA,NA,30,0.3,0,0.7,40,0.21,NA,NA,0,0.79
9156665,23,2620,0,95,0.21,NA,NA,0,0.79,NA,NA,30,0.3,0,0.7
9156665,24,1740,0,NA,NA,30,0.3,0,0.7,45,0.21,NA,NA,0,0.79
9156665,25,1311.99999999997,1,NA,NA,30,0.3,0,0.7,55,0.21,NA,NA,0,0.79
9156665,26,57.0000000000291,0,15,0.21,NA,NA,0,0.79,NA,NA,30,0.3,0,0.7
9156665,27,2030,1,NA,NA,30,0.3,0,0.7,10,0.21,NA,NA,0,0.79
9156665,28,584,1,NA,NA,30,0.3,0,0.7,85,0.21,NA,NA,0,0.79
9156665,29,1877.99999999997,0,60,0.21,NA,NA,0,0.79,NA,NA,30,0.3,0,0.7
9156665,30,1533,0,70,0.21,NA,NA,0,0.79,NA,NA,30,0.3,0,0.7
9156665,31,1439,0,NA,NA,30,0.3,0,0.7,50,0.21,NA,NA,0,0.79
9156665,32,2779.00000000003,0,25,0.21,NA,NA,0,0.79,NA,NA,30,0.3,0,0.7
9156665,33,1193.00000000003,1,35,0.21,NA,NA,0,0.79,NA,NA,30,0.3,0,0.7
9156665,34,2323,1,100,0.21,NA,NA,0,0.79,NA,NA,30,0.3,0,0.7
9156665,35,2282,0,30,0.21,NA,NA,0,0.79,NA,NA,30,0.3,0,0.7
9156665,36,2250,0,5,0.21,NA,NA,0,0.79,NA,NA,30,0.3,0,0.7
9156665,37,1462.00000000003,0,NA,NA,30,0.3,0,0.7,75,0.21,NA,NA,0,0.79
9156665,38,920,1,80,0.21,NA,NA,0,0.79,NA,NA,30,0.3,0,0.7
9156665,39,446.999999999971,0,NA,NA,30,0.3,0,0.7,90,0.21,NA,NA,0,0.79
9156665,40,815,0,NA,NA,30,0.3,0,0.7,65,0.21,NA,NA,0,0.79
9156669,2,8232,0,NA,NA,30,1,NA,NA,100,0.35,30,0.3,0,0.35
9156669,3,7573,0,15,0.35,30,0.3,0,0.35,NA,NA,30,1,NA,NA
9156669,5,5756.99999999997,0,5,0.35,30,0.3,0,0.35,NA,NA,30,1,NA,NA
9156669,6,10480,1,85,0.35,30,0.3,0,0.35,NA,NA,30,1,NA,NA
9156669,7,8811.00000000006,0,NA,NA,30,1,NA,NA,75,0.35,30,0.3,0,0.35
9156669,8,3151,0,NA,NA,30,1,NA,NA,95,0.35,30,0.3,0,0.35
9156669,9,4079,0,25,0.35,30,0.3,0,0.35,NA,NA,30,1,NA,NA
9156669,10,5123,1,NA,NA,30,1,NA,NA,35,0.35,30,0.3,0,0.35
9156669,11,8734,1,NA,NA,30,1,NA,NA,40,0.35,30,0.3,0,0.35
9156669,12,4996.00000000006,0,30,0.35,30,0.3,0,0.35,NA,NA,30,1,NA,NA
9156669,13,2730.00000000006,1,80,0.35,30,0.3,0,0.35,NA,NA,30,1,NA,NA
9156669,14,3108,0,NA,NA,30,1,NA,NA,65,0.35,30,0.3,0,0.35
9156669,15,2704,0,NA,NA,30,1,NA,NA,60,0.35,30,0.3,0,0.35
9156669,16,4976,0,20,0.35,30,0.3,0,0.35,NA,NA,30,1,NA,NA
9156669,17,1804,1,70,0.35,30,0.3,0,0.35,NA,NA,30,1,NA,NA
9156669,18,4177,0,NA,NA,30,1,NA,NA,50,0.35,30,0.3,0,0.35
9156669,19,3241.00000000006,1,NA,NA,30,1,NA,NA,10,0.35,30,0.3,0,0.35
9156669,20,6314,1,NA,NA,30,1,NA,NA,45,0.35,30,0.3,0,0.35
9156669,23,5266,1,NA,NA,30,0.7,0,0.3,65,0.35,NA,NA,0,0.65
9156669,24,4850,0,NA,NA,30,0.7,0,0.3,100,0.35,NA,NA,0,0.65
9156669,25,4498,1,NA,NA,30,0.7,0,0.3,35,0.35,NA,NA,0,0.65
9156669,26,2217,1,NA,NA,30,0.7,0,0.3,15,0.35,NA,NA,0,0.65
9156669,27,1698,1,NA,NA,30,0.7,0,0.3,10,0.35,NA,NA,0,0.65
9156669,28,5022,0,70,0.35,NA,NA,0,0.65,NA,NA,30,0.7,0,0.3
9156669,29,5004,0,NA,NA,30,0.7,0,0.3,95,0.35,NA,NA,0,0.65
9156669,30,3721.99999999994,0,50,0.35,NA,NA,0,0.65,NA,NA,30,0.7,0,0.3
9156669,31,3314.00000000006,0,5,0.35,NA,NA,0,0.65,NA,NA,30,0.7,0,0.3
9156669,32,10748,0,75,0.35,NA,NA,0,0.65,NA,NA,30,0.7,0,0.3
9156669,33,7772,1,80,0.35,NA,NA,0,0.65,NA,NA,30,0.7,0,0.3
9156669,34,2935.00000000006,1,NA,NA,30,0.7,0,0.3,30,0.35,NA,NA,0,0.65
9156669,35,8484,0,45,0.35,NA,NA,0,0.65,NA,NA,30,0.7,0,0.3
9156669,36,1783,1,NA,NA,30,0.7,0,0.3,20,0.35,NA,NA,0,0.65
9156669,37,1986,1,NA,NA,30,0.7,0,0.3,55,0.35,NA,NA,0,0.65
9156669,38,1274,1,NA,NA,30,0.7,0,0.3,25,0.35,NA,NA,0,0.65
9156669,39,2700.99999999994,0,60,0.35,NA,NA,0,0.65,NA,NA,30,0.7,0,0.3
9156669,40,1916.00000000006,1,90,0.35,NA,NA,0,0.65,NA,NA,30,0.7,0,0.3
9156681,1,2555.39999997616,0,NA,NA,30,1,NA,NA,40,0.15,30,0.7,0,0.15
9156681,2,3353.20000004768,1,30,0.15,30,0.7,0,0.15,NA,NA,30,1,NA,NA
9156681,3,5003.69999992847,1,55,0.15,30,0.7,0,0.15,NA,NA,30,1,NA,NA
9156681,4,6539,0,NA,NA,30,1,NA,NA,85,0.15,30,0.7,0,0.15
9156681,5,4884.79999995232,0,5,0.15,30,0.7,0,0.15,NA,NA,30,1,NA,NA
9156681,6,7286.40000009537,0,NA,NA,30,1,NA,NA,70,0.15,30,0.7,0,0.15
9156681,7,3692.60000002384,0,NA,NA,30,1,NA,NA,90,0.15,30,0.7,0,0.15
9156681,8,5878.10000002384,1,NA,NA,30,1,NA,NA,10,0.15,30,0.7,0,0.15
9156681,9,6653.79999995232,1,50,0.15,30,0.7,0,0.15,NA,NA,30,1,NA,NA
9156681,10,3202,1,NA,NA,30,1,NA,NA,35,0.15,30,0.7,0,0.15
9156681,11,4156.60000002384,1,80,0.15,30,0.7,0,0.15,NA,NA,30,1,NA,NA
9156681,12,3640.90000009537,1,65,0.15,30,0.7,0,0.15,NA,NA,30,1,NA,NA
9156681,13,2464,1,95,0.15,30,0.7,0,0.15,NA,NA,30,1,NA,NA
9156681,14,3499.5,0,15,0.15,30,0.7,0,0.15,NA,NA,30,1,NA,NA
9156681,15,3449.29999995232,1,NA,NA,30,1,NA,NA,25,0.15,30,0.7,0,0.15
9156681,16,4289.80000007153,1,60,0.15,30,0.7,0,0.15,NA,NA,30,1,NA,NA
9156681,17,6023.39999997616,0,NA,NA,30,1,NA,NA,100,0.15,30,0.7,0,0.15
9156681,18,6565.5,1,45,0.15,30,0.7,0,0.15,NA,NA,30,1,NA,NA
9156681,19,2518.79999995232,1,NA,NA,30,1,NA,NA,20,0.15,30,0.7,0,0.15
9156681,20,3234.79999995232,0,NA,NA,30,1,NA,NA,75,0.15,30,0.7,0,0.15
9156681,21,8355.60000002384,1,NA,NA,30,0.3,0,0.7,100,0.15,NA,NA,0,0.85
9156681,22,8709.89999997616,1,NA,NA,30,0.3,0,0.7,35,0.15,NA,NA,0,0.85
9156681,23,3998.60000002384,0,45,0.15,NA,NA,0,0.85,NA,NA,30,0.3,0,0.7
9156681,24,5117,1,NA,NA,30,0.3,0,0.7,20,0.15,NA,NA,0,0.85
9156681,25,5817.60000002384,1,95,0.15,NA,NA,0,0.85,NA,NA,30,0.3,0,0.7
9156681,26,3851,0,25,0.15,NA,NA,0,0.85,NA,NA,30,0.3,0,0.7
9156681,27,4248.60000002384,0,NA,NA,30,0.3,0,0.7,75,0.15,NA,NA,0,0.85
9156681,28,5183.80000007153,0,5,0.15,NA,NA,0,0.85,NA,NA,30,0.3,0,0.7
9156681,29,3248.89999997616,1,NA,NA,30,0.3,0,0.7,40,0.15,NA,NA,0,0.85
9156681,30,2991.20000004768,1,NA,NA,30,0.3,0,0.7,10,0.15,NA,NA,0,0.85
9156681,31,4367.5,1,NA,NA,30,0.3,0,0.7,15,0.15,NA,NA,0,0.85
9156681,32,6761.30000007153,1,55,0.15,NA,NA,0,0.85,NA,NA,30,0.3,0,0.7
9156681,33,3163.20000004768,1,60,0.15,NA,NA,0,0.85,NA,NA,30,0.3,0,0.7
9156681,34,3257.60000002384,1,65,0.15,NA,NA,0,0.85,NA,NA,30,0.3,0,0.7
9156681,35,1680.60000002384,0,NA,NA,30,0.3,0,0.7,90,0.15,NA,NA,0,0.85
9156681,36,2598.5,1,80,0.15,NA,NA,0,0.85,NA,NA,30,0.3,0,0.7
9156681,37,4950.5,0,30,0.15,NA,NA,0,0.85,NA,NA,30,0.3,0,0.7
9156681,38,2956.60000002384,1,50,0.15,NA,NA,0,0.85,NA,NA,30,0.3,0,0.7
9156681,39,1233.39999997616,1,85,0.15,NA,NA,0,0.85,NA,NA,30,0.3,0,0.7
9156681,40,2639.20000004768,0,NA,NA,30,0.3,0,0.7,70,0.15,NA,NA,0,0.85
9156697,1,4891,1,NA,NA,30,1,NA,NA,35,0.49,30,0.3,0,0.21
9156697,2,5103.99999999997,0,NA,NA,30,1,NA,NA,90,0.49,30,0.3,0,0.21
9156697,3,6625,0,NA,NA,30,1,NA,NA,100,0.49,30,0.3,0,0.21
9156697,4,4063,0,NA,NA,30,1,NA,NA,95,0.49,30,0.3,0,0.21
9156697,5,4456.99999999994,1,NA,NA,30,1,NA,NA,10,0.49,30,0.3,0,0.21
9156697,6,5545,1,NA,NA,30,1,NA,NA,15,0.49,30,0.3,0,0.21
9156697,7,3039,0,NA,NA,30,1,NA,NA,50,0.49,30,0.3,0,0.21
9156697,8,6064,1,85,0.49,30,0.3,0,0.21,NA,NA,30,1,NA,NA
9156697,9,2952,0,NA,NA,30,1,NA,NA,75,0.49,30,0.3,0,0.21
9156697,10,2897,0,NA,NA,30,1,NA,NA,65,0.49,30,0.3,0,0.21
9156697,11,2404,1,NA,NA,30,1,NA,NA,5,0.49,30,0.3,0,0.21
9156697,12,5674,0,NA,NA,30,1,NA,NA,30,0.49,30,0.3,0,0.21
9156697,15,11136,1,55,0.49,30,0.3,0,0.21,NA,NA,30,1,NA,NA
9156697,16,6447,1,40,0.49,30,0.3,0,0.21,NA,NA,30,1,NA,NA
9156697,17,2976,1,80,0.49,30,0.3,0,0.21,NA,NA,30,1,NA,NA
9156697,18,4103.00000000006,0,25,0.49,30,0.3,0,0.21,NA,NA,30,1,NA,NA
9156697,19,4225,1,NA,NA,30,1,NA,NA,20,0.49,30,0.3,0,0.21
9156697,20,4846,1,60,0.49,30,0.3,0,0.21,NA,NA,30,1,NA,NA
9156697,21,8801,1,85,0.49,NA,NA,0,0.51,NA,NA,30,0.7,0,0.3
9156697,23,7054,0,40,0.49,NA,NA,0,0.51,NA,NA,30,0.7,0,0.3
9156697,24,5576.00000000006,1,NA,NA,30,0.7,0,0.3,10,0.49,NA,NA,0,0.51
9156697,25,6085,1,NA,NA,30,0.7,0,0.3,15,0.49,NA,NA,0,0.51
9156697,26,8320,1,NA,NA,30,0.7,0,0.3,5,0.49,NA,NA,0,0.51
9156697,27,10546,0,35,0.49,NA,NA,0,0.51,NA,NA,30,0.7,0,0.3
9156697,28,5402.00000000006,1,NA,NA,30,0.7,0,0.3,30,0.49,NA,NA,0,0.51
9156697,29,6680,0,NA,NA,30,0.7,0,0.3,100,0.49,NA,NA,0,0.51
9156697,30,7278,1,NA,NA,30,0.7,0,0.3,20,0.49,NA,NA,0,0.51
9156697,33,4457.99999999988,1,90,0.49,NA,NA,0,0.51,NA,NA,30,0.7,0,0.3
9156697,34,5850,0,NA,NA,30,0.7,0,0.3,95,0.49,NA,NA,0,0.51
9156697,35,7362,0,NA,NA,30,0.7,0,0.3,55,0.49,NA,NA,0,0.51
9156697,37,5620,0,NA,NA,30,0.7,0,0.3,70,0.49,NA,NA,0,0.51
9156697,38,6037,1,NA,NA,30,0.7,0,0.3,25,0.49,NA,NA,0,0.51
9156697,39,7353,0,NA,NA,30,0.7,0,0.3,75,0.49,NA,NA,0,0.51
9156697,40,3747.00000000012,1,80,0.49,NA,NA,0,0.51,NA,NA,30,0.7,0,0.3
9156707,1,5016.40000009537,1,85,0.21,30,0.3,0,0.49,NA,NA,30,1,NA,NA
9156707,2,1913.70000004768,1,NA,NA,30,1,NA,NA,70,0.21,30,0.3,0,0.49
9156707,3,1375.69999992847,0,90,0.21,30,0.3,0,0.49,NA,NA,30,1,NA,NA
9156707,4,4829.29999995232,1,45,0.21,30,0.3,0,0.49,NA,NA,30,1,NA,NA
9156707,5,3824,0,NA,NA,30,1,NA,NA,40,0.21,30,0.3,0,0.49
9156707,6,7265.69999992847,1,95,0.21,30,0.3,0,0.49,NA,NA,30,1,NA,NA
9156707,7,2811.90000009537,0,10,0.21,30,0.3,0,0.49,NA,NA,30,1,NA,NA
9156707,8,5957.79999995232,1,65,0.21,30,0.3,0,0.49,NA,NA,30,1,NA,NA
9156707,9,1765.89999997616,1,NA,NA,30,1,NA,NA,15,0.21,30,0.3,0,0.49
9156707,10,7622.79999995232,0,60,0.21,30,0.3,0,0.49,NA,NA,30,1,NA,NA
9156707,11,6444.89999997616,1,NA,NA,30,1,NA,NA,5,0.21,30,0.3,0,0.49
9156707,13,6307.60000002384,1,NA,NA,30,1,NA,NA,50,0.21,30,0.3,0,0.49
9156707,14,3822.89999997616,1,NA,NA,30,1,NA,NA,35,0.21,30,0.3,0,0.49
9156707,15,3564.89999997616,1,75,0.21,30,0.3,0,0.49,NA,NA,30,1,NA,NA
9156707,16,8565.20000004768,1,25,0.21,30,0.3,0,0.49,NA,NA,30,1,NA,NA
9156707,17,1644.89999997616,1,80,0.21,30,0.3,0,0.49,NA,NA,30,1,NA,NA
9156707,18,3513.30000007153,0,20,0.21,30,0.3,0,0.49,NA,NA,30,1,NA,NA
9156707,19,564.600000023842,1,30,0.21,30,0.3,0,0.49,NA,NA,30,1,NA,NA
9156707,20,4646.70000004768,0,NA,NA,30,1,NA,NA,100,0.21,30,0.3,0,0.49
9156707,21,4439,0,35,0.21,NA,NA,0,0.79,NA,NA,30,0.7,0,0.3
9156707,22,1198.60000002384,1,NA,NA,30,0.7,0,0.3,15,0.21,NA,NA,0,0.79
9156707,23,2401.39999997616,0,85,0.21,NA,NA,0,0.79,NA,NA,30,0.7,0,0.3
9156707,24,1618.39999997616,0,10,0.21,NA,NA,0,0.79,NA,NA,30,0.7,0,0.3
9156707,25,3546.5,1,NA,NA,30,0.7,0,0.3,80,0.21,NA,NA,0,0.79
9156707,26,2077.89999997616,0,70,0.21,NA,NA,0,0.79,NA,NA,30,0.7,0,0.3
9156707,27,2080.09999990463,1,NA,NA,30,0.7,0,0.3,20,0.21,NA,NA,0,0.79
9156707,28,1446.5,0,75,0.21,NA,NA,0,0.79,NA,NA,30,0.7,0,0.3
9156707,29,1491.10000002384,1,NA,NA,30,0.7,0,0.3,50,0.21,NA,NA,0,0.79
9156707,30,1067.20000004768,1,NA,NA,30,0.7,0,0.3,65,0.21,NA,NA,0,0.79
9156707,31,4044.60000002384,0,100,0.21,NA,NA,0,0.79,NA,NA,30,0.7,0,0.3
9156707,32,4272.10000002384,1,NA,NA,30,0.7,0,0.3,60,0.21,NA,NA,0,0.79
9156707,33,4769.89999997616,0,90,0.21,NA,NA,0,0.79,NA,NA,30,0.7,0,0.3
9156707,34,2131.79999995232,0,NA,NA,30,0.7,0,0.3,25,0.21,NA,NA,0,0.79
9156707,35,1277.5,1,NA,NA,30,0.7,0,0.3,30,0.21,NA,NA,0,0.79
9156707,36,1801.5,0,45,0.21,NA,NA,0,0.79,NA,NA,30,0.7,0,0.3
9156707,37,1474.60000002384,0,40,0.21,NA,NA,0,0.79,NA,NA,30,0.7,0,0.3
9156707,38,907.799999952316,1,NA,NA,30,0.7,0,0.3,5,0.21,NA,NA,0,0.79
9156707,39,1816.10000002384,0,55,0.21,NA,NA,0,0.79,NA,NA,30,0.7,0,0.3
9156707,40,1753.60000002384,0,NA,NA,30,0.7,0,0.3,95,0.21,NA,NA,0,0.79
9156713,1,4385,0,25,0.21,30,0.7,0,0.09,NA,NA,30,1,NA,NA
9156713,3,5543.40000000037,0,NA,NA,30,1,NA,NA,80,0.21,30,0.7,0,0.09
9156713,4,4646.29999999888,1,85,0.21,30,0.7,0,0.09,NA,NA,30,1,NA,NA
9156713,5,3952.19999999925,0,NA,NA,30,1,NA,NA,70,0.21,30,0.7,0,0.09
9156713,6,5135.20000000112,1,30,0.21,30,0.7,0,0.09,NA,NA,30,1,NA,NA
9156713,7,4921.30000000075,0,NA,NA,30,1,NA,NA,15,0.21,30,0.7,0,0.09
9156713,8,2951.90000000037,0,NA,NA,30,1,NA,NA,35,0.21,30,0.7,0,0.09
9156713,9,1863.40000000037,1,75,0.21,30,0.7,0,0.09,NA,NA,30,1,NA,NA
9156713,10,4176.59999999963,1,60,0.21,30,0.7,0,0.09,NA,NA,30,1,NA,NA
9156713,11,5517,0,NA,NA,30,1,NA,NA,55,0.21,30,0.7,0,0.09
9156713,12,1879.40000000037,1,NA,NA,30,1,NA,NA,10,0.21,30,0.7,0,0.09
9156713,13,2537.29999999888,0,5,0.21,30,0.7,0,0.09,NA,NA,30,1,NA,NA
9156713,14,3082.70000000112,1,65,0.21,30,0.7,0,0.09,NA,NA,30,1,NA,NA
9156713,15,1640.40000000037,0,40,0.21,30,0.7,0,0.09,NA,NA,30,1,NA,NA
9156713,16,1683.5,0,50,0.21,30,0.7,0,0.09,NA,NA,30,1,NA,NA
9156713,17,1718.90000000037,1,95,0.21,30,0.7,0,0.09,NA,NA,30,1,NA,NA
9156713,18,1262.5,1,NA,NA,30,1,NA,NA,45,0.21,30,0.7,0,0.09
9156713,19,1231.80000000075,1,90,0.21,30,0.7,0,0.09,NA,NA,30,1,NA,NA
9156713,20,1413.5,1,NA,NA,30,1,NA,NA,20,0.21,30,0.7,0,0.09
9156713,21,10661.3000000007,0,70,0.21,NA,NA,0,0.79,NA,NA,30,0.3,0,0.7
9156713,22,9002.5,0,20,0.21,NA,NA,0,0.79,NA,NA,30,0.3,0,0.7
9156713,23,4217.90000000037,0,15,0.21,NA,NA,0,0.79,NA,NA,30,0.3,0,0.7
9156713,24,3160.79999999888,0,5,0.21,NA,NA,0,0.79,NA,NA,30,0.3,0,0.7
9156713,25,5839.29999999888,0,NA,NA,30,0.3,0,0.7,65,0.21,NA,NA,0,0.79
9156713,26,3098,1,60,0.21,NA,NA,0,0.79,NA,NA,30,0.3,0,0.7
9156713,27,4473.09999999963,1,NA,NA,30,0.3,0,0.7,45,0.21,NA,NA,0,0.79
9156713,28,3532.09999999963,0,NA,NA,30,0.3,0,0.7,75,0.21,NA,NA,0,0.79
9156713,29,1919.5,1,100,0.21,NA,NA,0,0.79,NA,NA,30,0.3,0,0.7
9156713,30,1888.79999999888,1,95,0.21,NA,NA,0,0.79,NA,NA,30,0.3,0,0.7
9156713,31,2841.60000000149,1,NA,NA,30,0.3,0,0.7,40,0.21,NA,NA,0,0.79
9156713,32,1784.20000000112,1,NA,NA,30,0.3,0,0.7,10,0.21,NA,NA,0,0.79
9156713,33,1116.90000000037,1,80,0.21,NA,NA,0,0.79,NA,NA,30,0.3,0,0.7
9156713,34,3022.5,0,35,0.21,NA,NA,0,0.79,NA,NA,30,0.3,0,0.7
9156713,35,834.400000000373,0,NA,NA,30,0.3,0,0.7,85,0.21,NA,NA,0,0.79
9156713,36,984,1,NA,NA,30,0.3,0,0.7,55,0.21,NA,NA,0,0.79
9156713,37,2206.20000000112,0,25,0.21,NA,NA,0,0.79,NA,NA,30,0.3,0,0.7
9156713,38,1846.19999999925,0,30,0.21,NA,NA,0,0.79,NA,NA,30,0.3,0,0.7
9156713,39,1596,0,NA,NA,30,0.3,0,0.7,90,0.21,NA,NA,0,0.79
9156713,40,1937.30000000075,1,NA,NA,30,0.3,0,0.7,50,0.21,NA,NA,0,0.79
9156718,2,6201,0,15,0.09,30,0.7,0,0.21,NA,NA,30,1,NA,NA
9156718,3,4491,0,30,0.09,30,0.7,0,0.21,NA,NA,30,1,NA,NA
9156718,4,3913.99999999999,1,65,0.09,30,0.7,0,0.21,NA,NA,30,1,NA,NA
9156718,7,7423,0,NA,NA,30,1,NA,NA,90,0.09,30,0.7,0,0.21
9156718,8,3918,0,NA,NA,30,1,NA,NA,100,0.09,30,0.7,0,0.21
9156718,9,2596.99999999997,0,NA,NA,30,1,NA,NA,70,0.09,30,0.7,0,0.21
9156718,10,2137,1,NA,NA,30,1,NA,NA,35,0.09,30,0.7,0,0.21
9156718,11,5921,1,80,0.09,30,0.7,0,0.21,NA,NA,30,1,NA,NA
9156718,12,2270,1,85,0.09,30,0.7,0,0.21,NA,NA,30,1,NA,NA
9156718,14,2594,0,10,0.09,30,0.7,0,0.21,NA,NA,30,1,NA,NA
9156718,15,1433,0,40,0.09,30,0.7,0,0.21,NA,NA,30,1,NA,NA
9156718,16,4091,0,NA,NA,30,1,NA,NA,75,0.09,30,0.7,0,0.21
9156718,17,2174,0,45,0.09,30,0.7,0,0.21,NA,NA,30,1,NA,NA
9156718,18,3130,0,55,0.09,30,0.7,0,0.21,NA,NA,30,1,NA,NA
9156718,19,1154,1,NA,NA,30,1,NA,NA,20,0.09,30,0.7,0,0.21
9156718,20,2964,0,25,0.09,30,0.7,0,0.21,NA,NA,30,1,NA,NA
9156718,21,6466.00000000003,1,NA,NA,30,0.3,0,0.7,75,0.09,NA,NA,0,0.91
9156718,22,2559,0,90,0.09,NA,NA,0,0.91,NA,NA,30,0.3,0,0.7
9156718,23,4117.99999999994,1,NA,NA,30,0.3,0,0.7,60,0.09,NA,NA,0,0.91
9156718,24,5682,0,95,0.09,NA,NA,0,0.91,NA,NA,30,0.3,0,0.7
9156718,25,4274,1,NA,NA,30,0.3,0,0.7,35,0.09,NA,NA,0,0.91
9156718,26,3513.00000000006,0,5,0.09,NA,NA,0,0.91,NA,NA,30,0.3,0,0.7
9156718,27,2343,0,30,0.09,NA,NA,0,0.91,NA,NA,30,0.3,0,0.7
9156718,28,6503.00000000006,0,NA,NA,30,0.3,0,0.7,55,0.09,NA,NA,0,0.91
9156718,29,9237.00000000006,0,20,0.09,NA,NA,0,0.91,NA,NA,30,0.3,0,0.7
9156718,30,5269,0,50,0.09,NA,NA,0,0.91,NA,NA,30,0.3,0,0.7
9156718,31,1551,1,NA,NA,30,0.3,0,0.7,10,0.09,NA,NA,0,0.91
9156718,32,8226,0,NA,NA,30,0.3,0,0.7,70,0.09,NA,NA,0,0.91
9156718,33,1441,0,NA,NA,30,0.3,0,0.7,80,0.09,NA,NA,0,0.91
9156718,34,1139,1,NA,NA,30,0.3,0,0.7,40,0.09,NA,NA,0,0.91
9156718,35,3832.99999999994,1,NA,NA,30,0.3,0,0.7,25,0.09,NA,NA,0,0.91
9156718,36,1280,0,45,0.09,NA,NA,0,0.91,NA,NA,30,0.3,0,0.7
9156718,37,2232,1,100,0.09,NA,NA,0,0.91,NA,NA,30,0.3,0,0.7
9156718,38,4346,1,NA,NA,30,0.3,0,0.7,15,0.09,NA,NA,0,0.91
9156718,39,5173,0,NA,NA,30,0.3,0,0.7,65,0.09,NA,NA,0,0.91
9156718,40,1259,1,85,0.09,NA,NA,0,0.91,NA,NA,30,0.3,0,0.7
9156739,1,3034.39999997616,1,70,0.49,30,0.3,0,0.21,NA,NA,30,1,NA,NA
9156739,2,4093.69999992847,1,85,0.49,30,0.3,0,0.21,NA,NA,30,1,NA,NA
9156739,3,4453,0,NA,NA,30,1,NA,NA,50,0.49,30,0.3,0,0.21
9156739,4,2994.5,1,NA,NA,30,1,NA,NA,65,0.49,30,0.3,0,0.21
9156739,5,3601.10000002384,0,45,0.49,30,0.3,0,0.21,NA,NA,30,1,NA,NA
9156739,6,3824.39999997616,0,40,0.49,30,0.3,0,0.21,NA,NA,30,1,NA,NA
9156739,7,1917.5,1,NA,NA,30,1,NA,NA,20,0.49,30,0.3,0,0.21
9156739,8,4632.10000002384,1,NA,NA,30,1,NA,NA,15,0.49,30,0.3,0,0.21
9156739,9,5257.29999995232,1,NA,NA,30,1,NA,NA,5,0.49,30,0.3,0,0.21
9156739,10,4006.79999995232,1,60,0.49,30,0.3,0,0.21,NA,NA,30,1,NA,NA
9156739,11,3667.5,0,NA,NA,30,1,NA,NA,95,0.49,30,0.3,0,0.21
9156739,12,3705.80000007153,1,NA,NA,30,1,NA,NA,10,0.49,30,0.3,0,0.21
9156739,13,3531.79999995232,0,NA,NA,30,1,NA,NA,75,0.49,30,0.3,0,0.21
9156739,14,1790.5,1,NA,NA,30,1,NA,NA,30,0.49,30,0.3,0,0.21
9156739,15,4787.5,0,25,0.49,30,0.3,0,0.21,NA,NA,30,1,NA,NA
9156739,16,7607.5,1,NA,NA,30,1,NA,NA,35,0.49,30,0.3,0,0.21
9156739,17,5961.09999990463,1,55,0.49,30,0.3,0,0.21,NA,NA,30,1,NA,NA
9156739,18,3006.39999997616,0,NA,NA,30,1,NA,NA,90,0.49,30,0.3,0,0.21
9156739,19,1511.19999992847,1,80,0.49,30,0.3,0,0.21,NA,NA,30,1,NA,NA
9156739,20,2410.89999997616,0,NA,NA,30,1,NA,NA,100,0.49,30,0.3,0,0.21
9156739,21,2509.80000007153,1,NA,NA,30,0.7,0,0.3,25,0.49,NA,NA,0,0.51
9156739,22,2700.60000002384,1,NA,NA,30,0.7,0,0.3,5,0.49,NA,NA,0,0.51
9156739,23,2644.19999992847,1,90,0.49,NA,NA,0,0.51,NA,NA,30,0.7,0,0.3
9156739,24,3014.39999997616,1,NA,NA,30,0.7,0,0.3,10,0.49,NA,NA,0,0.51
9156739,25,4885.29999995232,0,NA,NA,30,0.7,0,0.3,50,0.49,NA,NA,0,0.51
9156739,26,2492.60000002384,1,85,0.49,NA,NA,0,0.51,NA,NA,30,0.7,0,0.3
9156739,27,3156.60000002384,0,45,0.49,NA,NA,0,0.51,NA,NA,30,0.7,0,0.3
9156739,28,2308.89999997616,0,NA,NA,30,0.7,0,0.3,70,0.49,NA,NA,0,0.51
9156739,29,1998.39999997616,0,NA,NA,30,0.7,0,0.3,75,0.49,NA,NA,0,0.51
9156739,30,5567.80000007153,0,40,0.49,NA,NA,0,0.51,NA,NA,30,0.7,0,0.3
9156739,31,3798.70000004768,1,NA,NA,30,0.7,0,0.3,20,0.49,NA,NA,0,0.51
9156739,32,2259.5,0,NA,NA,30,0.7,0,0.3,55,0.49,NA,NA,0,0.51
9156739,33,2896.60000002384,0,NA,NA,30,0.7,0,0.3,65,0.49,NA,NA,0,0.51
9156739,34,1462.29999995232,1,80,0.49,NA,NA,0,0.51,NA,NA,30,0.7,0,0.3
9156739,35,3261,1,60,0.49,NA,NA,0,0.51,NA,NA,30,0.7,0,0.3
9156739,36,3194.60000002384,1,NA,NA,30,0.7,0,0.3,30,0.49,NA,NA,0,0.51
9156739,37,4436,0,35,0.49,NA,NA,0,0.51,NA,NA,30,0.7,0,0.3
9156739,38,2674.60000002384,0,NA,NA,30,0.7,0,0.3,100,0.49,NA,NA,0,0.51
9156739,39,2858.89999997616,1,NA,NA,30,0.7,0,0.3,15,0.49,NA,NA,0,0.51
9156739,40,1891.60000002384,0,NA,NA,30,0.7,0,0.3,95,0.49,NA,NA,0,0.51
9156742,5,3965.70000004768,0,50,0.15,30,0.7,0,0.15,NA,NA,30,1,NA,NA
9156742,7,5433.79999995232,0,55,0.15,30,0.7,0,0.15,NA,NA,30,1,NA,NA
9156742,8,7195.70000004768,0,NA,NA,30,1,NA,NA,75,0.15,30,0.7,0,0.15
9156742,9,2937.5,0,NA,NA,30,1,NA,NA,85,0.15,30,0.7,0,0.15
9156742,10,5810.40000009537,0,NA,NA,30,1,NA,NA,70,0.15,30,0.7,0,0.15
9156742,11,2263,0,15,0.15,30,0.7,0,0.15,NA,NA,30,1,NA,NA
9156742,12,3012.59999990463,1,NA,NA,30,1,NA,NA,35,0.15,30,0.7,0,0.15
9156742,13,2845.29999995232,0,5,0.15,30,0.7,0,0.15,NA,NA,30,1,NA,NA
9156742,14,5800.60000014305,1,NA,NA,30,1,NA,NA,25,0.15,30,0.7,0,0.15
9156742,15,4174.79999995232,0,60,0.15,30,0.7,0,0.15,NA,NA,30,1,NA,NA
9156742,16,1938.20000004768,0,30,0.15,30,0.7,0,0.15,NA,NA,30,1,NA,NA
9156742,17,3203.09999990463,1,NA,NA,30,1,NA,NA,10,0.15,30,0.7,0,0.15
9156742,18,2353.5,0,65,0.15,30,0.7,0,0.15,NA,NA,30,1,NA,NA
9156742,19,1758.10000014305,1,NA,NA,30,1,NA,NA,20,0.15,30,0.7,0,0.15
9156742,20,1943.39999985695,0,NA,NA,30,1,NA,NA,90,0.15,30,0.7,0,0.15
9156742,21,10545.7999999523,1,95,0.15,NA,NA,0,0.85,NA,NA,30,0.3,0,0.7
9156742,24,5227.5,0,NA,NA,30,0.3,0,0.7,90,0.15,NA,NA,0,0.85
9156742,25,6450.79999995232,1,NA,NA,30,0.3,0,0.7,35,0.15,NA,NA,0,0.85
9156742,26,6174.20000004768,1,NA,NA,30,0.3,0,0.7,20,0.15,NA,NA,0,0.85
9156742,27,5343.5,1,NA,NA,30,0.3,0,0.7,10,0.15,NA,NA,0,0.85
9156742,28,5558.5,0,25,0.15,NA,NA,0,0.85,NA,NA,30,0.3,0,0.7
9156742,30,10686.7000000477,0,55,0.15,NA,NA,0,0.85,NA,NA,30,0.3,0,0.7
9156742,31,7868.79999995232,1,80,0.15,NA,NA,0,0.85,NA,NA,30,0.3,0,0.7
9156742,32,3262.80000019073,1,NA,NA,30,0.3,0,0.7,15,0.15,NA,NA,0,0.85
9156742,33,3973,1,85,0.15,NA,NA,0,0.85,NA,NA,30,0.3,0,0.7
9156742,34,4450.59999990463,0,45,0.15,NA,NA,0,0.85,NA,NA,30,0.3,0,0.7
9156742,35,5533.90000009537,0,NA,NA,30,0.3,0,0.7,75,0.15,NA,NA,0,0.85
9156742,36,2083.39999985695,1,NA,NA,30,0.3,0,0.7,40,0.15,NA,NA,0,0.85
9156742,37,2875.79999995232,0,NA,NA,30,0.3,0,0.7,100,0.15,NA,NA,0,0.85
9156742,38,4556.29999995232,0,50,0.15,NA,NA,0,0.85,NA,NA,30,0.3,0,0.7
9156742,39,3403.40000009537,1,65,0.15,NA,NA,0,0.85,NA,NA,30,0.3,0,0.7
9156742,40,2336,0,5,0.15,NA,NA,0,0.85,NA,NA,30,0.3,0,0.7
9156769,1,4472.40000000224,1,NA,NA,30,1,NA,NA,100,0.35,30,0.3,0,0.35
9156769,2,5337.39999999851,1,NA,NA,30,1,NA,NA,55,0.35,30,0.3,0,0.35
9156769,3,3080.10000000149,0,NA,NA,30,1,NA,NA,90,0.35,30,0.3,0,0.35
9156769,4,4552.40000000224,1,85,0.35,30,0.3,0,0.35,NA,NA,30,1,NA,NA
9156769,5,4368.39999999851,1,NA,NA,30,1,NA,NA,10,0.35,30,0.3,0,0.35
9156769,6,3146.39999999851,0,20,0.35,30,0.3,0,0.35,NA,NA,30,1,NA,NA
9156769,7,4425.19999999925,1,NA,NA,30,1,NA,NA,40,0.35,30,0.3,0,0.35
9156769,8,5411.5,0,15,0.35,30,0.3,0,0.35,NA,NA,30,1,NA,NA
9156769,9,5647.80000000075,0,NA,NA,30,1,NA,NA,45,0.35,30,0.3,0,0.35
9156769,10,2529.09999999776,0,30,0.35,30,0.3,0,0.35,NA,NA,30,1,NA,NA
9156769,11,1557.29999999702,0,NA,NA,30,1,NA,NA,60,0.35,30,0.3,0,0.35
9156769,12,6335.39999999851,1,NA,NA,30,1,NA,NA,35,0.35,30,0.3,0,0.35
9156769,13,1516,1,80,0.35,30,0.3,0,0.35,NA,NA,30,1,NA,NA
9156769,14,2534.59999999776,0,NA,NA,30,1,NA,NA,95,0.35,30,0.3,0,0.35
9156769,15,4154.59999999776,0,5,0.35,30,0.3,0,0.35,NA,NA,30,1,NA,NA
9156769,16,1405.10000000149,0,NA,NA,30,1,NA,NA,65,0.35,30,0.3,0,0.35
9156769,17,1291.60000000149,1,70,0.35,30,0.3,0,0.35,NA,NA,30,1,NA,NA
9156769,18,1853.5,0,25,0.35,30,0.3,0,0.35,NA,NA,30,1,NA,NA
9156769,19,1326,0,NA,NA,30,1,NA,NA,50,0.35,30,0.3,0,0.35
9156769,20,1099.59999999776,0,NA,NA,30,1,NA,NA,75,0.35,30,0.3,0,0.35
9156769,21,7439.69999999925,0,60,0.35,NA,NA,0,0.65,NA,NA,30,0.7,0,0.3
9156769,22,5353.30000000075,1,85,0.35,NA,NA,0,0.65,NA,NA,30,0.7,0,0.3
9156769,23,4057.90000000224,0,80,0.35,NA,NA,0,0.65,NA,NA,30,0.7,0,0.3
9156769,24,6498.80000000075,1,NA,NA,30,0.7,0,0.3,25,0.35,NA,NA,0,0.65
9156769,25,5856.80000000075,1,NA,NA,30,0.7,0,0.3,65,0.35,NA,NA,0,0.65
9156769,26,7824.20000000298,0,70,0.35,NA,NA,0,0.65,NA,NA,30,0.7,0,0.3
9156769,27,3027.90000000224,1,NA,NA,30,0.7,0,0.3,30,0.35,NA,NA,0,0.65
9156769,28,3543.89999999851,0,NA,NA,30,0.7,0,0.3,100,0.35,NA,NA,0,0.65
9156769,29,3636.19999999925,1,90,0.35,NA,NA,0,0.65,NA,NA,30,0.7,0,0.3
9156769,30,5585.39999999851,1,NA,NA,30,0.7,0,0.3,40,0.35,NA,NA,0,0.65
9156769,31,1614.19999999925,0,NA,NA,30,0.7,0,0.3,95,0.35,NA,NA,0,0.65
9156769,32,4681.90000000224,0,45,0.35,NA,NA,0,0.65,NA,NA,30,0.7,0,0.3
9156769,33,3119.5,1,NA,NA,30,0.7,0,0.3,20,0.35,NA,NA,0,0.65
9156769,34,3165.69999999925,1,NA,NA,30,0.7,0,0.3,35,0.35,NA,NA,0,0.65
9156769,35,5179.5,0,50,0.35,NA,NA,0,0.65,NA,NA,30,0.7,0,0.3
9156769,36,2576,0,NA,NA,30,0.7,0,0.3,55,0.35,NA,NA,0,0.65
9156769,37,2025.70000000298,1,NA,NA,30,0.7,0,0.3,15,0.35,NA,NA,0,0.65
9156769,38,1614.89999999851,1,NA,NA,30,0.7,0,0.3,10,0.35,NA,NA,0,0.65
9156769,39,1749.79999999702,0,5,0.35,NA,NA,0,0.65,NA,NA,30,0.7,0,0.3
9156769,40,1408.89999999851,1,75,0.35,NA,NA,0,0.65,NA,NA,30,0.7,0,0.3
9157153,1,5711,0,15,0.35,30,0.3,0,0.35,NA,NA,30,1,NA,NA
9157153,2,8119,1,80,0.35,30,0.3,0,0.35,NA,NA,30,1,NA,NA
9157153,3,6961.99999999997,1,NA,NA,30,1,NA,NA,40,0.35,30,0.3,0,0.35
9157153,4,7882,0,NA,NA,30,1,NA,NA,75,0.35,30,0.3,0,0.35
9157153,5,6220,0,20,0.35,30,0.3,0,0.35,NA,NA,30,1,NA,NA
9157153,6,9170.00000000003,1,NA,NA,30,1,NA,NA,55,0.35,30,0.3,0,0.35
9157153,7,5821,1,NA,NA,30,1,NA,NA,45,0.35,30,0.3,0,0.35
9157153,8,9661,0,25,0.35,30,0.3,0,0.35,NA,NA,30,1,NA,NA
9157153,9,5020,1,85,0.35,30,0.3,0,0.35,NA,NA,30,1,NA,NA
9157153,10,3921.00000000003,0,30,0.35,30,0.3,0,0.35,NA,NA,30,1,NA,NA
9157153,11,2823.00000000003,0,NA,NA,30,1,NA,NA,90,0.35,30,0.3,0,0.35
9157153,12,3409,1,NA,NA,30,1,NA,NA,50,0.35,30,0.3,0,0.35
9157153,13,1537,0,NA,NA,30,1,NA,NA,95,0.35,30,0.3,0,0.35
9157153,14,2237.00000000003,1,NA,NA,30,1,NA,NA,35,0.35,30,0.3,0,0.35
9157153,15,2076.99999999997,0,5,0.35,30,0.3,0,0.35,NA,NA,30,1,NA,NA
9157153,16,4634,0,NA,NA,30,1,NA,NA,60,0.35,30,0.3,0,0.35
9157153,17,1658.99999999997,1,70,0.35,30,0.3,0,0.35,NA,NA,30,1,NA,NA
9157153,18,2325,1,NA,NA,30,1,NA,NA,10,0.35,30,0.3,0,0.35
9157153,19,2153,0,NA,NA,30,1,NA,NA,65,0.35,30,0.3,0,0.35
9157153,20,2018.00000000003,0,NA,NA,30,1,NA,NA,100,0.35,30,0.3,0,0.35
9157153,21,6279,0,50,0.35,NA,NA,0,0.65,NA,NA,30,0.7,0,0.3
9157153,22,4128,0,NA,NA,30,0.7,0,0.3,100,0.35,NA,NA,0,0.65
9157153,23,4686.00000000003,1,NA,NA,30,0.7,0,0.3,25,0.35,NA,NA,0,0.65
9157153,24,4571,0,NA,NA,30,0.7,0,0.3,65,0.35,NA,NA,0,0.65
9157153,25,1684.99999999994,1,NA,NA,30,0.7,0,0.3,40,0.35,NA,NA,0,0.65
9157153,26,8455,1,90,0.35,NA,NA,0,0.65,NA,NA,30,0.7,0,0.3
9157153,27,5242,1,NA,NA,30,0.7,0,0.3,20,0.35,NA,NA,0,0.65
9157153,28,5165,1,NA,NA,30,0.7,0,0.3,35,0.35,NA,NA,0,0.65
9157153,29,4374,0,45,0.35,NA,NA,0,0.65,NA,NA,30,0.7,0,0.3
9157153,31,2918,0,NA,NA,30,0.7,0,0.3,95,0.35,NA,NA,0,0.65
9157153,32,5058,1,80,0.35,NA,NA,0,0.65,NA,NA,30,0.7,0,0.3
9157153,33,2553.99999999994,1,NA,NA,30,0.7,0,0.3,30,0.35,NA,NA,0,0.65
9157153,34,5580,1,60,0.35,NA,NA,0,0.65,NA,NA,30,0.7,0,0.3
9157153,35,2574,1,NA,NA,30,0.7,0,0.3,10,0.35,NA,NA,0,0.65
9157153,36,2682,0,5,0.35,NA,NA,0,0.65,NA,NA,30,0.7,0,0.3
9157153,37,3352,1,NA,NA,30,0.7,0,0.3,15,0.35,NA,NA,0,0.65
9157153,38,3173,1,85,0.35,NA,NA,0,0.65,NA,NA,30,0.7,0,0.3
9157153,39,4140,1,70,0.35,NA,NA,0,0.65,NA,NA,30,0.7,0,0.3
9157153,40,6011.00000000006,1,75,0.35,NA,NA,0,0.65,NA,NA,30,0.7,0,0.3
9157156,1,9582.20000004768,1,85,0.49,30,0.3,0,0.21,NA,NA,30,1,NA,NA
9157156,2,5197.89999997616,0,NA,NA,30,1,NA,NA,100,0.49,30,0.3,0,0.21
9157156,3,8098.79999995232,1,NA,NA,30,1,NA,NA,5,0.49,30,0.3,0,0.21
9157156,7,8385.80000007153,1,60,0.49,30,0.3,0,0.21,NA,NA,30,1,NA,NA
9157156,8,7464.30000007153,1,55,0.49,30,0.3,0,0.21,NA,NA,30,1,NA,NA
9157156,9,5495.79999995232,0,NA,NA,30,1,NA,NA,75,0.49,30,0.3,0,0.21
9157156,10,6774,1,NA,NA,30,1,NA,NA,15,0.49,30,0.3,0,0.21
9157156,11,7777.10000002384,1,NA,NA,30,1,NA,NA,20,0.49,30,0.3,0,0.21
9157156,12,6884.40000009537,0,25,0.49,30,0.3,0,0.21,NA,NA,30,1,NA,NA
9157156,13,8437.29999995232,1,NA,NA,30,1,NA,NA,50,0.49,30,0.3,0,0.21
9157156,14,10911.2999999523,1,NA,NA,30,1,NA,NA,35,0.49,30,0.3,0,0.21
9157156,15,4003,1,70,0.49,30,0.3,0,0.21,NA,NA,30,1,NA,NA
9157156,16,4717.69999992847,0,NA,NA,30,1,NA,NA,90,0.49,30,0.3,0,0.21
9157156,17,4764.60000002384,0,NA,NA,30,1,NA,NA,95,0.49,30,0.3,0,0.21
9157156,18,4976,1,80,0.49,30,0.3,0,0.21,NA,NA,30,1,NA,NA
9157156,19,7798.60000002384,0,45,0.49,30,0.3,0,0.21,NA,NA,30,1,NA,NA
9157156,20,8052.5,1,NA,NA,30,1,NA,NA,30,0.49,30,0.3,0,0.21
9157156,22,8933.70000004768,1,90,0.49,NA,NA,0,0.51,NA,NA,30,0.7,0,0.3
9157156,23,6921.39999997616,1,NA,NA,30,0.7,0,0.3,30,0.49,NA,NA,0,0.51
9157156,24,8564.19999992847,1,NA,NA,30,0.7,0,0.3,15,0.49,NA,NA,0,0.51
9157156,28,8072.60000002384,0,NA,NA,30,0.7,0,0.3,100,0.49,NA,NA,0,0.51
9157156,30,6840.80000007153,1,80,0.49,NA,NA,0,0.51,NA,NA,30,0.7,0,0.3
9157156,31,7059.40000009537,1,60,0.49,NA,NA,0,0.51,NA,NA,30,0.7,0,0.3
9157156,32,7728.39999997616,0,45,0.49,NA,NA,0,0.51,NA,NA,30,0.7,0,0.3
9157156,35,6539.5,1,NA,NA,30,0.7,0,0.3,20,0.49,NA,NA,0,0.51
9157156,36,9684.5,0,NA,NA,30,0.7,0,0.3,70,0.49,NA,NA,0,0.51
9157156,39,7171.60000002384,1,NA,NA,30,0.7,0,0.3,5,0.49,NA,NA,0,0.51
9157156,40,8110.10000002384,1,NA,NA,30,0.7,0,0.3,10,0.49,NA,NA,0,0.51
9157161,1,8452,0,NA,NA,30,1,NA,NA,100,0.21,30,0.3,0,0.49
9157161,2,4769,0,NA,NA,30,1,NA,NA,55,0.21,30,0.3,0,0.49
9157161,3,6809.99999999997,1,NA,NA,30,1,NA,NA,5,0.21,30,0.3,0,0.49
9157161,4,4345,0,NA,NA,30,1,NA,NA,40,0.21,30,0.3,0,0.49
9157161,5,7265,0,NA,NA,30,1,NA,NA,70,0.21,30,0.3,0,0.49
9157161,6,9157,1,60,0.21,30,0.3,0,0.49,NA,NA,30,1,NA,NA
9157161,7,3778,1,NA,NA,30,1,NA,NA,35,0.21,30,0.3,0,0.49
9157161,8,4541,0,25,0.21,30,0.3,0,0.49,NA,NA,30,1,NA,NA
9157161,9,5430,1,75,0.21,30,0.3,0,0.49,NA,NA,30,1,NA,NA
9157161,10,7491,0,30,0.21,30,0.3,0,0.49,NA,NA,30,1,NA,NA
9157161,11,4244,1,80,0.21,30,0.3,0,0.49,NA,NA,30,1,NA,NA
9157161,12,3997,1,NA,NA,30,1,NA,NA,15,0.21,30,0.3,0,0.49
9157161,13,2728.99999999997,0,20,0.21,30,0.3,0,0.49,NA,NA,30,1,NA,NA
9157161,14,2656,1,95,0.21,30,0.3,0,0.49,NA,NA,30,1,NA,NA
9157161,15,3098,1,65,0.21,30,0.3,0,0.49,NA,NA,30,1,NA,NA
9157161,16,4880,0,NA,NA,30,1,NA,NA,50,0.21,30,0.3,0,0.49
9157161,17,5130,0,45,0.21,30,0.3,0,0.49,NA,NA,30,1,NA,NA
9157161,18,5104,1,90,0.21,30,0.3,0,0.49,NA,NA,30,1,NA,NA
9157161,19,2118,1,85,0.21,30,0.3,0,0.49,NA,NA,30,1,NA,NA
9157161,20,1091,0,10,0.21,30,0.3,0,0.49,NA,NA,30,1,NA,NA
9157161,22,10321,1,NA,NA,30,0.7,0,0.3,65,0.21,NA,NA,0,0.79
9157161,23,5791,1,70,0.21,NA,NA,0,0.79,NA,NA,30,0.7,0,0.3
9157161,24,10110,0,NA,NA,30,0.7,0,0.3,95,0.21,NA,NA,0,0.79
9157161,25,9327,1,NA,NA,30,0.7,0,0.3,15,0.21,NA,NA,0,0.79
9157161,26,5915,0,55,0.21,NA,NA,0,0.79,NA,NA,30,0.7,0,0.3
9157161,27,8400,0,45,0.21,NA,NA,0,0.79,NA,NA,30,0.7,0,0.3
9157161,28,2911,1,90,0.21,NA,NA,0,0.79,NA,NA,30,0.7,0,0.3
9157161,29,4089,1,NA,NA,30,0.7,0,0.3,25,0.21,NA,NA,0,0.79
9157161,30,3881,0,35,0.21,NA,NA,0,0.79,NA,NA,30,0.7,0,0.3
9157161,31,10137,1,NA,NA,30,0.7,0,0.3,60,0.21,NA,NA,0,0.79
9157161,32,4074.00000000006,1,NA,NA,30,0.7,0,0.3,20,0.21,NA,NA,0,0.79
9157161,33,2764,0,NA,NA,30,0.7,0,0.3,80,0.21,NA,NA,0,0.79
9157161,34,3001,0,40,0.21,NA,NA,0,0.79,NA,NA,30,0.7,0,0.3
9157161,35,1989,1,75,0.21,NA,NA,0,0.79,NA,NA,30,0.7,0,0.3
9157161,36,1766,1,NA,NA,30,0.7,0,0.3,5,0.21,NA,NA,0,0.79
9157161,37,2269,1,85,0.21,NA,NA,0,0.79,NA,NA,30,0.7,0,0.3
9157161,38,2476,1,NA,NA,30,0.7,0,0.3,30,0.21,NA,NA,0,0.79
9157161,39,1824,1,100,0.21,NA,NA,0,0.79,NA,NA,30,0.7,0,0.3
9157161,40,6220,1,NA,NA,30,0.7,0,0.3,50,0.21,NA,NA,0,0.79
9157175,1,6138,1,NA,NA,30,1,NA,NA,75,0.09,30,0.7,0,0.21
9157175,2,5560.99999999999,1,NA,NA,30,1,NA,NA,60,0.09,30,0.7,0,0.21
9157175,3,6158,0,5,0.09,30,0.7,0,0.21,NA,NA,30,1,NA,NA
9157175,4,6205,0,45,0.09,30,0.7,0,0.21,NA,NA,30,1,NA,NA
9157175,5,4603.99999999997,1,85,0.09,30,0.7,0,0.21,NA,NA,30,1,NA,NA
9157175,6,7209,0,55,0.09,30,0.7,0,0.21,NA,NA,30,1,NA,NA
9157175,7,5167,1,NA,NA,30,1,NA,NA,20,0.09,30,0.7,0,0.21
9157175,8,7589,0,65,0.09,30,0.7,0,0.21,NA,NA,30,1,NA,NA
9157175,9,6449,1,NA,NA,30,1,NA,NA,90,0.09,30,0.7,0,0.21
9157175,10,4079,0,40,0.09,30,0.7,0,0.21,NA,NA,30,1,NA,NA
9157175,11,5372.00000000003,0,10,0.09,30,0.7,0,0.21,NA,NA,30,1,NA,NA
9157175,12,2761,1,95,0.09,30,0.7,0,0.21,NA,NA,30,1,NA,NA
9157175,13,4068,0,30,0.09,30,0.7,0,0.21,NA,NA,30,1,NA,NA
9157175,14,3436,1,NA,NA,30,1,NA,NA,35,0.09,30,0.7,0,0.21
9157175,15,2830,1,80,0.09,30,0.7,0,0.21,NA,NA,30,1,NA,NA
9157175,16,3881,0,NA,NA,30,1,NA,NA,70,0.09,30,0.7,0,0.21
9157175,17,2455.99999999997,0,NA,NA,30,1,NA,NA,100,0.09,30,0.7,0,0.21
9157175,18,2250,0,25,0.09,30,0.7,0,0.21,NA,NA,30,1,NA,NA
9157175,19,3706.99999999997,0,15,0.09,30,0.7,0,0.21,NA,NA,30,1,NA,NA
9157175,20,3063.99999999997,0,50,0.09,30,0.7,0,0.21,NA,NA,30,1,NA,NA
9157175,21,8031,0,30,0.09,NA,NA,0,0.91,NA,NA,30,0.3,0,0.7
9157175,22,6981,0,45,0.09,NA,NA,0,0.91,NA,NA,30,0.3,0,0.7
9157175,23,3749.00000000003,0,5,0.09,NA,NA,0,0.91,NA,NA,30,0.3,0,0.7
9157175,24,8647,1,NA,NA,30,0.3,0,0.7,80,0.09,NA,NA,0,0.91
9157175,25,3421,1,NA,NA,30,0.3,0,0.7,10,0.09,NA,NA,0,0.91
9157175,26,3753,1,NA,NA,30,0.3,0,0.7,35,0.09,NA,NA,0,0.91
9157175,27,3803.99999999994,1,NA,NA,30,0.3,0,0.7,75,0.09,NA,NA,0,0.91
9157175,28,1635.99999999994,1,NA,NA,30,0.3,0,0.7,55,0.09,NA,NA,0,0.91
9157175,29,4404,0,50,0.09,NA,NA,0,0.91,NA,NA,30,0.3,0,0.7
9157175,30,6716,1,NA,NA,30,0.3,0,0.7,70,0.09,NA,NA,0,0.91
9157175,31,2847,1,85,0.09,NA,NA,0,0.91,NA,NA,30,0.3,0,0.7
9157175,32,1814,1,95,0.09,NA,NA,0,0.91,NA,NA,30,0.3,0,0.7
9157175,33,2984,0,20,0.09,NA,NA,0,0.91,NA,NA,30,0.3,0,0.7
9157175,34,3762,1,90,0.09,NA,NA,0,0.91,NA,NA,30,0.3,0,0.7
9157175,35,7796.99999999994,1,NA,NA,30,0.3,0,0.7,25,0.09,NA,NA,0,0.91
9157175,36,3590.99999999994,1,NA,NA,30,0.3,0,0.7,40,0.09,NA,NA,0,0.91
9157175,37,3429,1,100,0.09,NA,NA,0,0.91,NA,NA,30,0.3,0,0.7
9157175,38,1882,1,NA,NA,30,0.3,0,0.7,65,0.09,NA,NA,0,0.91
9157175,39,2057,1,NA,NA,30,0.3,0,0.7,60,0.09,NA,NA,0,0.91
9157175,40,1639,1,NA,NA,30,0.3,0,0.7,15,0.09,NA,NA,0,0.91
9157201,1,5043,0,5,0.21,30,0.7,0,0.09,NA,NA,30,1,NA,NA
9157201,3,8111,1,NA,NA,30,1,NA,NA,55,0.21,30,0.7,0,0.09
9157201,5,9798,0,NA,NA,30,1,NA,NA,80,0.21,30,0.7,0,0.09
9157201,6,5305,0,NA,NA,30,1,NA,NA,100,0.21,30,0.7,0,0.09
9157201,7,5766,0,NA,NA,30,1,NA,NA,35,0.21,30,0.7,0,0.09
9157201,8,3471,1,40,0.21,30,0.7,0,0.09,NA,NA,30,1,NA,NA
9157201,9,3187.00000000001,0,NA,NA,30,1,NA,NA,70,0.21,30,0.7,0,0.09
9157201,10,4089.99999999999,1,30,0.21,30,0.7,0,0.09,NA,NA,30,1,NA,NA
9157201,11,3279,1,NA,NA,30,1,NA,NA,10,0.21,30,0.7,0,0.09
9157201,12,2677,1,95,0.21,30,0.7,0,0.09,NA,NA,30,1,NA,NA
9157201,13,2083,0,25,0.21,30,0.7,0,0.09,NA,NA,30,1,NA,NA
9157201,14,3192,1,65,0.21,30,0.7,0,0.09,NA,NA,30,1,NA,NA
9157201,15,2089,1,90,0.21,30,0.7,0,0.09,NA,NA,30,1,NA,NA
9157201,16,1152.00000000003,1,85,0.21,30,0.7,0,0.09,NA,NA,30,1,NA,NA
9157201,17,2044,1,NA,NA,30,1,NA,NA,15,0.21,30,0.7,0,0.09
9157201,18,1415.00000000003,1,60,0.21,30,0.7,0,0.09,NA,NA,30,1,NA,NA
9157201,19,2121,0,NA,NA,30,1,NA,NA,45,0.21,30,0.7,0,0.09
9157201,20,1746.99999999997,1,50,0.21,30,0.7,0,0.09,NA,NA,30,1,NA,NA
9157201,23,5754.99999999997,1,NA,NA,30,0.3,0,0.7,10,0.21,NA,NA,0,0.79
9157201,24,3822,0,NA,NA,30,0.3,0,0.7,75,0.21,NA,NA,0,0.79
9157201,25,5237.00000000003,1,80,0.21,NA,NA,0,0.79,NA,NA,30,0.3,0,0.7
9157201,26,3874,1,70,0.21,NA,NA,0,0.79,NA,NA,30,0.3,0,0.7
9157201,27,3323,0,NA,NA,30,0.3,0,0.7,55,0.21,NA,NA,0,0.79
9157201,28,4485,0,5,0.21,NA,NA,0,0.79,NA,NA,30,0.3,0,0.7
9157201,29,3846,1,95,0.21,NA,NA,0,0.79,NA,NA,30,0.3,0,0.7
9157201,30,3509.99999999997,0,NA,NA,30,0.3,0,0.7,45,0.21,NA,NA,0,0.79
9157201,31,2348,1,100,0.21,NA,NA,0,0.79,NA,NA,30,0.3,0,0.7
9157201,32,2412,0,NA,NA,30,0.3,0,0.7,90,0.21,NA,NA,0,0.79
9157201,33,1300,0,NA,NA,30,0.3,0,0.7,65,0.21,NA,NA,0,0.79
9157201,34,3977,0,20,0.21,NA,NA,0,0.79,NA,NA,30,0.3,0,0.7
9157201,35,5292.00000000003,0,35,0.21,NA,NA,0,0.79,NA,NA,30,0.3,0,0.7
9157201,36,2012,0,NA,NA,30,0.3,0,0.7,50,0.21,NA,NA,0,0.79
9157201,37,1746,1,60,0.21,NA,NA,0,0.79,NA,NA,30,0.3,0,0.7
9157201,38,2172,0,30,0.21,NA,NA,0,0.79,NA,NA,30,0.3,0,0.7
9157201,39,2844.00000000006,0,NA,NA,30,0.3,0,0.7,40,0.21,NA,NA,0,0.79
9157201,40,4342,0,25,0.21,NA,NA,0,0.79,NA,NA,30,0.3,0,0.7
9157213,1,2114.29999998212,0,60,0.15,30,0.7,0,0.15,NA,NA,30,1,NA,NA
9157213,2,1892.5,1,NA,NA,30,1,NA,NA,10,0.15,30,0.7,0,0.15
9157213,3,1706.19999998808,1,NA,NA,30,1,NA,NA,85,0.15,30,0.7,0,0.15
9157213,4,4181,1,NA,NA,30,1,NA,NA,35,0.15,30,0.7,0,0.15
9157213,5,2729.69999998808,0,65,0.15,30,0.7,0,0.15,NA,NA,30,1,NA,NA
9157213,6,5575.59999999404,1,95,0.15,30,0.7,0,0.15,NA,NA,30,1,NA,NA
9157213,7,2694.30000001192,1,NA,NA,30,1,NA,NA,70,0.15,30,0.7,0,0.15
9157213,8,2951.30000001192,1,NA,NA,30,1,NA,NA,40,0.15,30,0.7,0,0.15
9157213,9,3467.09999999404,0,50,0.15,30,0.7,0,0.15,NA,NA,30,1,NA,NA
9157213,10,2496.30000001192,1,NA,NA,30,1,NA,NA,25,0.15,30,0.7,0,0.15
9157213,11,2558,0,5,0.15,30,0.7,0,0.15,NA,NA,30,1,NA,NA
9157213,12,2104.09999999404,1,NA,NA,30,1,NA,NA,20,0.15,30,0.7,0,0.15
9157213,13,3416.09999999404,0,NA,NA,30,1,NA,NA,75,0.15,30,0.7,0,0.15
9157213,14,3031.20000001788,1,80,0.15,30,0.7,0,0.15,NA,NA,30,1,NA,NA
9157213,15,1992.5,0,NA,NA,30,1,NA,NA,90,0.15,30,0.7,0,0.15
9157213,16,2100.70000001788,0,NA,NA,30,1,NA,NA,100,0.15,30,0.7,0,0.15
9157213,17,1826.10000002384,1,30,0.15,30,0.7,0,0.15,NA,NA,30,1,NA,NA
9157213,18,5104.30000001192,0,45,0.15,30,0.7,0,0.15,NA,NA,30,1,NA,NA
9157213,19,1779.90000000596,0,15,0.15,30,0.7,0,0.15,NA,NA,30,1,NA,NA
9157213,20,2474.69999998808,0,55,0.15,30,0.7,0,0.15,NA,NA,30,1,NA,NA
9157213,21,4358.60000002384,1,NA,NA,30,0.3,0,0.7,90,0.15,NA,NA,0,0.85
9157213,22,6347.80000001192,0,60,0.15,NA,NA,0,0.85,NA,NA,30,0.3,0,0.7
9157213,23,2012.59999999404,0,95,0.15,NA,NA,0,0.85,NA,NA,30,0.3,0,0.7
9157213,24,1544.5,0,30,0.15,NA,NA,0,0.85,NA,NA,30,0.3,0,0.7
9157213,25,5247.20000001788,0,85,0.15,NA,NA,0,0.85,NA,NA,30,0.3,0,0.7
9157213,26,2423.89999997616,1,NA,NA,30,0.3,0,0.7,10,0.15,NA,NA,0,0.85
9157213,27,1465.09999999404,1,NA,NA,30,0.3,0,0.7,35,0.15,NA,NA,0,0.85
9157213,28,1874.90000000596,0,55,0.15,NA,NA,0,0.85,NA,NA,30,0.3,0,0.7
9157213,29,1681.40000000596,0,65,0.15,NA,NA,0,0.85,NA,NA,30,0.3,0,0.7
9157213,30,2855.5,1,NA,NA,30,0.3,0,0.7,20,0.15,NA,NA,0,0.85
9157213,31,1704.59999999404,0,80,0.15,NA,NA,0,0.85,NA,NA,30,0.3,0,0.7
9157213,32,1848.59999999404,0,25,0.15,NA,NA,0,0.85,NA,NA,30,0.3,0,0.7
9157213,33,2375,1,NA,NA,30,0.3,0,0.7,100,0.15,NA,NA,0,0.85
9157213,34,4364.69999998808,1,NA,NA,30,0.3,0,0.7,15,0.15,NA,NA,0,0.85
9157213,35,1838,0,45,0.15,NA,NA,0,0.85,NA,NA,30,0.3,0,0.7
9157213,36,1734.20000001788,1,NA,NA,30,0.3,0,0.7,75,0.15,NA,NA,0,0.85
9157213,37,2374.5,1,NA,NA,30,0.3,0,0.7,40,0.15,NA,NA,0,0.85
9157213,38,1168.39999997616,0,5,0.15,NA,NA,0,0.85,NA,NA,30,0.3,0,0.7
9157213,39,1048.29999998212,0,50,0.15,NA,NA,0,0.85,NA,NA,30,0.3,0,0.7
9157213,40,1287.70000001788,1,NA,NA,30,0.3,0,0.7,70,0.15,NA,NA,0,0.85
9158390,1,6006.29999999702,0,25,0.21,30,0.7,0,0.09,NA,NA,30,1,NA,NA
9158390,2,4967.90000000596,1,40,0.21,30,0.7,0,0.09,NA,NA,30,1,NA,NA
9158390,3,3979.79999999702,1,65,0.21,30,0.7,0,0.09,NA,NA,30,1,NA,NA
9158390,4,1873.5,1,75,0.21,30,0.7,0,0.09,NA,NA,30,1,NA,NA
9158390,5,6447,1,NA,NA,30,1,NA,NA,10,0.21,30,0.7,0,0.09
9158390,6,2846.5,0,NA,NA,30,1,NA,NA,100,0.21,30,0.7,0,0.09
9158390,7,2368.5,1,NA,NA,30,1,NA,NA,20,0.21,30,0.7,0,0.09
9158390,8,3234.09999999404,1,95,0.21,30,0.7,0,0.09,NA,NA,30,1,NA,NA
9158390,9,4764.79999999702,1,85,0.21,30,0.7,0,0.09,NA,NA,30,1,NA,NA
9158390,10,2260,1,60,0.21,30,0.7,0,0.09,NA,NA,30,1,NA,NA
9158390,11,2086.40000000596,0,NA,NA,30,1,NA,NA,70,0.21,30,0.7,0,0.09
9158390,12,1895.69999998808,1,90,0.21,30,0.7,0,0.09,NA,NA,30,1,NA,NA
9158390,13,3437.89999999106,0,NA,NA,30,1,NA,NA,45,0.21,30,0.7,0,0.09
9158390,14,4938.5,0,NA,NA,30,1,NA,NA,55,0.21,30,0.7,0,0.09
9158390,15,6321.29999999702,0,NA,NA,30,1,NA,NA,35,0.21,30,0.7,0,0.09
9158390,16,2216.89999999106,0,30,0.21,30,0.7,0,0.09,NA,NA,30,1,NA,NA
9158390,17,3048.90000000596,1,50,0.21,30,0.7,0,0.09,NA,NA,30,1,NA,NA
9158390,18,2032.09999999404,1,NA,NA,30,1,NA,NA,15,0.21,30,0.7,0,0.09
9158390,19,2094.70000000298,0,5,0.21,30,0.7,0,0.09,NA,NA,30,1,NA,NA
9158390,20,2829.40000000596,0,NA,NA,30,1,NA,NA,80,0.21,30,0.7,0,0.09
9158390,21,6546.29999999702,0,30,0.21,NA,NA,0,0.79,NA,NA,30,0.3,0,0.7
9158390,22,5195.90000000596,0,15,0.21,NA,NA,0,0.79,NA,NA,30,0.3,0,0.7
9158390,23,9785.90000000596,0,NA,NA,30,0.3,0,0.7,75,0.21,NA,NA,0,0.79
9158390,24,7178.29999999702,1,95,0.21,NA,NA,0,0.79,NA,NA,30,0.3,0,0.7
9158390,26,8042.5,0,35,0.21,NA,NA,0,0.79,NA,NA,30,0.3,0,0.7
9158390,27,5402.39999999106,0,NA,NA,30,0.3,0,0.7,85,0.21,NA,NA,0,0.79
9158390,28,6275,1,NA,NA,30,0.3,0,0.7,45,0.21,NA,NA,0,0.79
9158390,29,6709.40000000596,1,NA,NA,30,0.3,0,0.7,40,0.21,NA,NA,0,0.79
9158390,30,1833.79999999702,0,NA,NA,30,0.3,0,0.7,55,0.21,NA,NA,0,0.79
9158390,31,3044.70000000298,1,NA,NA,30,0.3,0,0.7,10,0.21,NA,NA,0,0.79
9158390,32,7894.90000000596,1,70,0.21,NA,NA,0,0.79,NA,NA,30,0.3,0,0.7
9158390,33,3340.20000000298,0,20,0.21,NA,NA,0,0.79,NA,NA,30,0.3,0,0.7
9158390,34,3802.59999999404,0,25,0.21,NA,NA,0,0.79,NA,NA,30,0.3,0,0.7
9158390,35,1559,1,80,0.21,NA,NA,0,0.79,NA,NA,30,0.3,0,0.7
9158390,36,2347.89999999106,1,60,0.21,NA,NA,0,0.79,NA,NA,30,0.3,0,0.7
9158390,37,10228.200000003,0,NA,NA,30,0.3,0,0.7,50,0.21,NA,NA,0,0.79
9158390,38,3846.79999999702,0,NA,NA,30,0.3,0,0.7,90,0.21,NA,NA,0,0.79
9158390,39,1653,0,NA,NA,30,0.3,0,0.7,65,0.21,NA,NA,0,0.79
9158390,40,1423.70000000298,1,100,0.21,NA,NA,0,0.79,NA,NA,30,0.3,0,0.7
9158415,1,3771.79999995232,0,5,0.35,30,0.3,0,0.35,NA,NA,30,1,NA,NA
9158415,2,2856.30000001192,0,NA,NA,30,1,NA,NA,35,0.35,30,0.3,0,0.35
9158415,3,1618.89999997616,1,70,0.35,30,0.3,0,0.35,NA,NA,30,1,NA,NA
9158415,4,1024.90000003576,0,NA,NA,30,1,NA,NA,75,0.35,30,0.3,0,0.35
9158415,5,1604.30000001192,0,NA,NA,30,1,NA,NA,90,0.35,30,0.3,0,0.35
9158415,6,1184.40000003576,0,NA,NA,30,1,NA,NA,95,0.35,30,0.3,0,0.35
9158415,7,1272.90000003576,0,NA,NA,30,1,NA,NA,50,0.35,30,0.3,0,0.35
9158415,8,2215.79999995232,1,NA,NA,30,1,NA,NA,10,0.35,30,0.3,0,0.35
9158415,9,1581.30000001192,1,85,0.35,30,0.3,0,0.35,NA,NA,30,1,NA,NA
9158415,10,1878.89999997616,0,20,0.35,30,0.3,0,0.35,NA,NA,30,1,NA,NA
9158415,11,1500.19999998808,0,25,0.35,30,0.3,0,0.35,NA,NA,30,1,NA,NA
9158415,12,1529.79999995232,0,NA,NA,30,1,NA,NA,60,0.35,30,0.3,0,0.35
9158415,13,1927.5,0,15,0.35,30,0.3,0,0.35,NA,NA,30,1,NA,NA
9158415,14,1385.20000004768,0,NA,NA,30,1,NA,NA,55,0.35,30,0.3,0,0.35
9158415,15,2388.30000001192,0,30,0.35,30,0.3,0,0.35,NA,NA,30,1,NA,NA
9158415,16,1211.69999998808,1,80,0.35,30,0.3,0,0.35,NA,NA,30,1,NA,NA
9158415,17,1147.40000003576,0,NA,NA,30,1,NA,NA,45,0.35,30,0.3,0,0.35
9158415,18,933,0,NA,NA,30,1,NA,NA,40,0.35,30,0.3,0,0.35
9158415,19,879.399999976158,0,NA,NA,30,1,NA,NA,100,0.35,30,0.3,0,0.35
9158415,20,861.799999952316,0,NA,NA,30,1,NA,NA,65,0.35,30,0.3,0,0.35
9158415,21,2514.10000002384,1,90,0.35,NA,NA,0,0.65,NA,NA,30,0.7,0,0.3
9158415,22,1289.5,0,5,0.35,NA,NA,0,0.65,NA,NA,30,0.7,0,0.3
9158415,23,1125.09999996424,1,NA,NA,30,0.7,0,0.3,15,0.35,NA,NA,0,0.65
9158415,24,1547,0,NA,NA,30,0.7,0,0.3,100,0.35,NA,NA,0,0.65
9158415,25,1109.79999995232,1,70,0.35,NA,NA,0,0.65,NA,NA,30,0.7,0,0.3
9158415,26,1134.5,0,NA,NA,30,0.7,0,0.3,35,0.35,NA,NA,0,0.65
9158415,27,1020.10000002384,1,NA,NA,30,0.7,0,0.3,25,0.35,NA,NA,0,0.65
9158415,28,985.599999964237,1,NA,NA,30,0.7,0,0.3,20,0.35,NA,NA,0,0.65
9158415,29,895.200000047684,1,85,0.35,NA,NA,0,0.65,NA,NA,30,0.7,0,0.3
9158415,30,1353.10000002384,0,NA,NA,30,0.7,0,0.3,30,0.35,NA,NA,0,0.65
9158415,31,1289.69999998808,0,NA,NA,30,0.7,0,0.3,55,0.35,NA,NA,0,0.65
9158415,32,1009,1,60,0.35,NA,NA,0,0.65,NA,NA,30,0.7,0,0.3
9158415,33,903.099999964237,1,45,0.35,NA,NA,0,0.65,NA,NA,30,0.7,0,0.3
9158415,34,880.5,0,NA,NA,30,0.7,0,0.3,65,0.35,NA,NA,0,0.65
9158415,35,934.399999976158,0,NA,NA,30,0.7,0,0.3,95,0.35,NA,NA,0,0.65
9158415,36,1330.5,1,NA,NA,30,0.7,0,0.3,10,0.35,NA,NA,0,0.65
9158415,37,1091.60000002384,0,NA,NA,30,0.7,0,0.3,40,0.35,NA,NA,0,0.65
9158415,38,962.300000011921,1,75,0.35,NA,NA,0,0.65,NA,NA,30,0.7,0,0.3
9158415,39,1021.80000001192,1,50,0.35,NA,NA,0,0.65,NA,NA,30,0.7,0,0.3
9158415,40,849.199999988079,1,80,0.35,NA,NA,0,0.65,NA,NA,30,0.7,0,0.3
9158418,1,3042,1,85,0.09,30,0.7,0,0.21,NA,NA,30,1,NA,NA
9158418,2,5072,1,55,0.09,30,0.7,0,0.21,NA,NA,30,1,NA,NA
9158418,3,4533,1,5,0.09,30,0.7,0,0.21,NA,NA,30,1,NA,NA
9158418,4,4134,0,NA,NA,30,1,NA,NA,90,0.09,30,0.7,0,0.21
9158418,5,1257,1,80,0.09,30,0.7,0,0.21,NA,NA,30,1,NA,NA
9158418,6,3837,0,45,0.09,30,0.7,0,0.21,NA,NA,30,1,NA,NA
9158418,7,3468.99999999999,0,10,0.09,30,0.7,0,0.21,NA,NA,30,1,NA,NA
9158418,8,2503,0,NA,NA,30,1,NA,NA,75,0.09,30,0.7,0,0.21
9158418,9,2288,1,95,0.09,30,0.7,0,0.21,NA,NA,30,1,NA,NA
9158418,10,4912,1,65,0.09,30,0.7,0,0.21,NA,NA,30,1,NA,NA
9158418,11,2003,0,25,0.09,30,0.7,0,0.21,NA,NA,30,1,NA,NA
9158418,12,3995,0,NA,NA,30,1,NA,NA,60,0.09,30,0.7,0,0.21
9158418,13,2014.00000000001,0,15,0.09,30,0.7,0,0.21,NA,NA,30,1,NA,NA
9158418,14,1951.00000000001,0,NA,NA,30,1,NA,NA,70,0.09,30,0.7,0,0.21
9158418,15,2195.00000000003,1,NA,NA,30,1,NA,NA,35,0.09,30,0.7,0,0.21
9158418,16,6036,0,50,0.09,30,0.7,0,0.21,NA,NA,30,1,NA,NA
9158418,17,1462,0,40,0.09,30,0.7,0,0.21,NA,NA,30,1,NA,NA
9158418,18,1119,0,30,0.09,30,0.7,0,0.21,NA,NA,30,1,NA,NA
9158418,19,1660,1,NA,NA,30,1,NA,NA,20,0.09,30,0.7,0,0.21
9158418,20,2764,0,NA,NA,30,1,NA,NA,100,0.09,30,0.7,0,0.21
9158418,21,6515,1,95,0.09,NA,NA,0,0.91,NA,NA,30,0.3,0,0.7
9158418,22,4153.99999999997,0,45,0.09,NA,NA,0,0.91,NA,NA,30,0.3,0,0.7
9158418,23,2275,1,NA,NA,30,0.3,0,0.7,10,0.09,NA,NA,0,0.91
9158418,24,5542,0,NA,NA,30,0.3,0,0.7,55,0.09,NA,NA,0,0.91
9158418,25,2951,0,NA,NA,30,0.3,0,0.7,75,0.09,NA,NA,0,0.91
9158418,26,1579.99999999997,0,5,0.09,NA,NA,0,0.91,NA,NA,30,0.3,0,0.7
9158418,27,4809,1,NA,NA,30,0.3,0,0.7,60,0.09,NA,NA,0,0.91
9158418,28,2714,1,85,0.09,NA,NA,0,0.91,NA,NA,30,0.3,0,0.7
9158418,29,1253.00000000003,1,NA,NA,30,0.3,0,0.7,25,0.09,NA,NA,0,0.91
9158418,30,1633.00000000003,0,NA,NA,30,0.3,0,0.7,80,0.09,NA,NA,0,0.91
9158418,31,3044.00000000003,0,20,0.09,NA,NA,0,0.91,NA,NA,30,0.3,0,0.7
9158418,32,2091.00000000003,1,NA,NA,30,0.3,0,0.7,15,0.09,NA,NA,0,0.91
9158418,33,1582,1,90,0.09,NA,NA,0,0.91,NA,NA,30,0.3,0,0.7
9158418,34,1361,0,30,0.09,NA,NA,0,0.91,NA,NA,30,0.3,0,0.7
9158418,35,1977.00000000003,0,50,0.09,NA,NA,0,0.91,NA,NA,30,0.3,0,0.7
9158418,36,1420,0,NA,NA,30,0.3,0,0.7,70,0.09,NA,NA,0,0.91
9158418,37,1271.99999999997,1,NA,NA,30,0.3,0,0.7,40,0.09,NA,NA,0,0.91
9158418,38,1300,0,NA,NA,30,0.3,0,0.7,65,0.09,NA,NA,0,0.91
9158418,39,1642,1,100,0.09,NA,NA,0,0.91,NA,NA,30,0.3,0,0.7
9158418,40,1425.99999999997,1,NA,NA,30,0.3,0,0.7,35,0.09,NA,NA,0,0.91
9158535,1,5228,1,NA,NA,30,1,NA,NA,25,0.15,30,0.7,0,0.15
9158535,2,4896,0,65,0.15,30,0.7,0,0.15,NA,NA,30,1,NA,NA
9158535,3,9171,1,NA,NA,30,1,NA,NA,70,0.15,30,0.7,0,0.15
9158535,4,3925,1,NA,NA,30,1,NA,NA,40,0.15,30,0.7,0,0.15
9158535,5,4216,1,NA,NA,30,1,NA,NA,35,0.15,30,0.7,0,0.15
9158535,6,5280,1,NA,NA,30,1,NA,NA,90,0.15,30,0.7,0,0.15
9158535,7,5311,1,NA,NA,30,1,NA,NA,20,0.15,30,0.7,0,0.15
9158535,8,3425,0,15,0.15,30,0.7,0,0.15,NA,NA,30,1,NA,NA
9158535,9,7444,0,60,0.15,30,0.7,0,0.15,NA,NA,30,1,NA,NA
9158535,10,6230,1,NA,NA,30,1,NA,NA,75,0.15,30,0.7,0,0.15
9158535,11,1949,0,95,0.15,30,0.7,0,0.15,NA,NA,30,1,NA,NA
9158535,12,2930,0,55,0.15,30,0.7,0,0.15,NA,NA,30,1,NA,NA
9158535,13,1707,0,30,0.15,30,0.7,0,0.15,NA,NA,30,1,NA,NA
9158535,14,6402,1,NA,NA,30,1,NA,NA,100,0.15,30,0.7,0,0.15
9158535,15,2370,0,45,0.15,30,0.7,0,0.15,NA,NA,30,1,NA,NA
9158535,16,2568,0,80,0.15,30,0.7,0,0.15,NA,NA,30,1,NA,NA
9158535,17,1549,0,5,0.15,30,0.7,0,0.15,NA,NA,30,1,NA,NA
9158535,19,9717,0,50,0.15,30,0.7,0,0.15,NA,NA,30,1,NA,NA
9158535,20,4961,1,NA,NA,30,1,NA,NA,85,0.15,30,0.7,0,0.15
9158535,22,9474,0,50,0.15,NA,NA,0,0.85,NA,NA,30,0.3,0,0.7
9158535,24,7358,0,5,0.15,NA,NA,0,0.85,NA,NA,30,0.3,0,0.7
9158535,25,3887,0,95,0.15,NA,NA,0,0.85,NA,NA,30,0.3,0,0.7
9158535,26,2556,0,25,0.15,NA,NA,0,0.85,NA,NA,30,0.3,0,0.7
9158535,27,4307,1,NA,NA,30,0.3,0,0.7,70,0.15,NA,NA,0,0.85
9158535,28,2683,1,NA,NA,30,0.3,0,0.7,20,0.15,NA,NA,0,0.85
9158535,29,2538,0,65,0.15,NA,NA,0,0.85,NA,NA,30,0.3,0,0.7
9158535,30,2832,1,NA,NA,30,0.3,0,0.7,75,0.15,NA,NA,0,0.85
9158535,31,1980,0,80,0.15,NA,NA,0,0.85,NA,NA,30,0.3,0,0.7
9158535,32,1128,1,NA,NA,30,0.3,0,0.7,40,0.15,NA,NA,0,0.85
9158535,33,1331,1,NA,NA,30,0.3,0,0.7,10,0.15,NA,NA,0,0.85
9158535,34,1040,1,NA,NA,30,0.3,0,0.7,15,0.15,NA,NA,0,0.85
9158535,35,1745,0,30,0.15,NA,NA,0,0.85,NA,NA,30,0.3,0,0.7
9158535,36,3026,0,85,0.15,NA,NA,0,0.85,NA,NA,30,0.3,0,0.7
9158535,37,1884,0,55,0.15,NA,NA,0,0.85,NA,NA,30,0.3,0,0.7
9158535,38,1970,0,60,0.15,NA,NA,0,0.85,NA,NA,30,0.3,0,0.7
9158535,39,4412,1,NA,NA,30,0.3,0,0.7,35,0.15,NA,NA,0,0.85
9158535,40,3230,1,NA,NA,30,0.3,0,0.7,100,0.15,NA,NA,0,0.85
